Thigh_R	Thigh_R	Thigh_R	Thigh_R	Thigh_R	Thigh_R	Thigh_R	Thigh_R	Thigh_R	Thigh_R	Shank_R	Shank_R	Shank_R	Shank_R	Shank_R	Shank_R	Shank_R	Shank_R	Shank_R	Shank_R	Foot_R	Foot_R	Foot_R	Foot_R	Foot_R	Foot_R	Foot_R	Foot_R	Foot_R	Foot_R	Thigh_L	Thigh_L	Thigh_L	Thigh_L	Thigh_L	Thigh_L	Thigh_L	Thigh_L	Thigh_L	Thigh_L	Shank_L	Shank_L	Shank_L	Shank_L	Shank_L	Shank_L	Shank_L	Shank_L	Shank_L	Shank_L	Shank_L	Shank_L	Foot_L	Foot_L	Foot_L	Foot_L	Foot_L	Foot_L	Foot_L	Foot_L	Foot_L	Foot_L	Pelvis	Pelvis	Pelvis	Pelvis	Pelvis	Pelvis	Pelvis	Pelvis	Pelvis	Pelvis	Annotation	Annotation
Timestamp	Gyroscope X	Gyroscope Y	Gyroscope Z	Wide Range Accelerometer X	Wide Range Accelerometer Y	Wide Range Accelerometer Z	Magnetometer X	Magnetometer Y	Magnetometer Z	Timestamp	Gyroscope X	Gyroscope Y	Gyroscope Z	Wide Range Accelerometer X	Wide Range Accelerometer Y	Wide Range Accelerometer Z	Magnetometer X	Magnetometer Y	Magnetometer Z	Timestamp	Gyroscope X	Gyroscope Y	Gyroscope Z	Wide Range Accelerometer X	Wide Range Accelerometer Y	Wide Range Accelerometer Z	Magnetometer X	Magnetometer Y	Magnetometer Z	Timestamp	Gyroscope X	Gyroscope Y	Gyroscope Z	Wide Range Accelerometer X	Wide Range Accelerometer Y	Wide Range Accelerometer Z	Magnetometer X	Magnetometer Y	Magnetometer Z	Timestamp	Sync Timestamp	Offset Timestamp	Gyroscope X	Gyroscope Y	Gyroscope Z	Wide Range Accelerometer X	Wide Range Accelerometer Y	Wide Range Accelerometer Z	Magnetometer X	Magnetometer Y	Magnetometer Z	Timestamp	Gyroscope X	Gyroscope Y	Gyroscope Z	Wide Range Accelerometer X	Wide Range Accelerometer Y	Wide Range Accelerometer Z	Magnetometer X	Magnetometer Y	Magnetometer Z	Timestamp	Gyroscope X	Gyroscope Y	Gyroscope Z	Wide Range Accelerometer X	Wide Range Accelerometer Y	Wide Range Accelerometer Z	Magnetometer X	Magnetometer Y	Magnetometer Z	Pulse	Level
CAL	CAL	CAL	CAL	CAL	CAL	CAL	CAL	CAL	CAL	CAL	CAL	CAL	CAL	CAL	CAL	CAL	CAL	CAL	CAL	CAL	CAL	CAL	CAL	CAL	CAL	CAL	CAL	CAL	CAL	CAL	CAL	CAL	CAL	CAL	CAL	CAL	CAL	CAL	CAL	CAL	CAL	CAL	CAL	CAL	CAL	CAL	CAL	CAL	CAL	CAL	CAL	CAL	CAL	CAL	CAL	CAL	CAL	CAL	CAL	CAL	CAL	CAL	CAL	CAL	CAL	CAL	CAL	CAL	CAL	CAL	CAL	Pulse	Level
mSecs	deg/sec	deg/sec	deg/sec	m/(sec^2)	m/(sec^2)	m/(sec^2)	local	local	local	mSecs	deg/sec	deg/sec	deg/sec	m/(sec^2)	m/(sec^2)	m/(sec^2)	local	local	local	mSecs	deg/sec	deg/sec	deg/sec	m/(sec^2)	m/(sec^2)	m/(sec^2)	local	local	local	mSecs	deg/sec	deg/sec	deg/sec	m/(sec^2)	m/(sec^2)	m/(sec^2)	local	local	local	mSecs	secs	secs	deg/sec	deg/sec	deg/sec	m/(sec^2)	m/(sec^2)	m/(sec^2)	local	local	local	mSecs	deg/sec	deg/sec	deg/sec	m/(sec^2)	m/(sec^2)	m/(sec^2)	local	local	local	mSecs	deg/sec	deg/sec	deg/sec	m/(sec^2)	m/(sec^2)	m/(sec^2)	local	local	local	Boolean	Boolean
2346816.4062	3.4091	0.0733	-0.5636	-1.1572	9.4905	2.5865	-0.3981	-0.6563	-0.5553	2348408.2031	-0.3848	1.0515	-0.1139	0.4254	9.7242	0.7171	-0.2846	-0.6562	-0.4753	2348408.2031	-0.0358	0.4745	0.0659	1.6131	5.1258	-7.8897	-0.5211	-0.1458	0.4912	2347890.6250	1.5919	0.4861	-0.1059	0.7319	9.4499	2.6979	0.2255	-0.7181	0.0328	2348408.2031	3509014444.9429	3509012096.5347	0.0637	0.3356	0.2790	0.4804	9.6818	1.9612	0.4184	-0.6745	0.2105	2348408.2031	0.1826	0.1284	-0.4726	-0.8675	5.3177	-8.3042	-0.7160	1.8929	0.5329	2345732.4219	2.6146	0.3935	-0.1804	0.2670	9.6296	-2.0319	0.2950	-0.7835	-0.2465	0.0000	0.0000
2346826.1719	3.3997	-0.0187	-0.2142	-1.3173	9.4905	2.5129	-0.4057	-0.6602	-0.5466	2348417.9687	-0.3848	1.0515	-0.1139	0.1866	9.6446	0.5614	-0.2808	-0.6328	-0.4989	2348417.9687	-0.0358	0.4745	0.0659	1.7689	5.1250	-7.9681	-0.5252	-0.1500	0.5022	2347900.3906	1.5919	0.4861	-0.1059	0.6561	9.5263	2.8523	0.2490	-0.7490	0.0398	2348417.9687	3509014444.9527	3509012096.5347	0.0637	0.3356	0.2790	0.5587	9.6802	1.8032	0.3918	-0.6723	0.1747	2348417.9687	0.1826	0.1284	-0.4726	-0.7887	5.3946	-8.3073	-0.7220	1.9244	0.5845	2345742.1875	3.0028	0.6508	-0.9081	0.2678	9.5539	-1.9534	0.3006	-0.8276	-0.2604	0.0000	0.0000
2346835.9375	3.3997	-0.0187	-0.2142	-1.2376	9.4141	2.5128	-0.4019	-0.6641	-0.5662	2348427.7344	0.0794	-0.0512	0.1179	0.2662	9.7242	0.7171	-0.3000	-0.6699	-0.4882	2348427.7344	0.1467	0.5398	-0.2241	1.6910	5.1250	-7.9673	-0.5352	-0.1417	0.5088	2347910.1562	1.5919	0.4861	-0.1059	0.6546	9.4499	2.6987	0.2314	-0.7119	0.0094	2348427.7344	3509014444.9624	3509012096.5347	0.0637	0.3356	0.2790	0.5587	9.6818	1.9612	0.4102	-0.6255	0.1916	2348427.7344	0.1200	0.3592	-0.4880	-0.8683	5.3161	-8.3837	-0.7220	1.9244	0.5845	2345751.9531	3.0028	0.6508	-0.9081	0.4278	9.4783	-1.8749	0.2857	-0.7854	-0.2442	0.0000	0.0000
2346845.7031	3.3997	-0.0187	-0.2142	-1.2376	9.4905	2.5121	-0.4000	-0.6699	-0.5445	2348437.5000	0.0794	-0.0512	0.1179	0.4254	9.8031	0.7941	-0.2808	-0.6152	-0.4710	2348437.5000	0.1467	0.5398	-0.2241	1.6910	5.1250	-7.9673	-0.5352	-0.1417	0.5088	2347919.9219	1.5919	0.4861	-0.1059	0.6538	9.4499	2.6215	0.2314	-0.7058	0.0094	2348437.5000	3509014444.9722	3509012096.5347	0.1676	0.2734	0.0027	0.4804	9.6818	1.9612	0.4102	-0.6255	0.1916	2348437.5000	0.1200	0.3592	-0.4880	-0.8675	5.3177	-8.3042	-0.7140	1.9139	0.5516	2345761.7187	3.0028	0.6508	-0.9081	0.2670	9.5532	-2.0311	0.3006	-0.7759	-0.2465	0.0000	0.0000
2346855.4687	2.7993	-0.9945	-0.4802	-1.0783	9.4905	2.5105	-0.4114	-0.6738	-0.5488	2348447.2656	0.0794	-0.0512	0.1179	0.2662	9.8038	0.8727	-0.2808	-0.6152	-0.4710	2348447.2656	0.1467	0.5398	-0.2241	1.6910	5.2034	-7.9681	-0.4990	-0.1000	0.4978	2347929.6875	1.8981	-0.0247	-0.1752	0.5006	9.4499	2.7775	0.2431	-0.7058	0.0351	2348447.2656	3509014444.9820	3509012096.5347	0.1676	0.2734	0.0027	0.4804	9.6041	1.9620	0.3939	-0.6532	0.2105	2348447.2656	0.1200	0.3592	-0.4880	-0.8691	5.3915	-8.4648	-0.7000	1.9055	0.5329	2345771.4844	1.0737	1.0141	-0.6339	0.5074	9.6312	-1.8764	0.2913	-0.8008	-0.2535	0.0000	0.0000
2346865.2344	2.7993	-0.9945	-0.4802	-1.2376	9.4905	2.5121	-0.4114	-0.6583	-0.5423	2348457.0312	-0.2636	0.2947	0.3733	0.4254	9.7250	0.7957	-0.2865	-0.6484	-0.5032	2348457.0312	0.1467	0.5398	-0.2241	1.7689	5.1250	-7.9681	-0.5272	-0.1187	0.5044	2347939.4531	1.8981	-0.0247	-0.1752	0.5772	9.5263	2.6987	0.2392	-0.7407	0.0398	2348457.0312	3509014444.9917	3509012096.5347	0.1676	0.2734	0.0027	0.4804	9.7580	1.8024	0.4061	-0.6277	0.1832	2348457.0312	0.1200	0.3592	-0.4880	-0.7895	5.3160	-8.3853	-0.7000	1.9055	0.5329	2345781.2500	1.0737	1.0141	-0.6339	0.5885	9.6327	-1.7209	0.3006	-0.7912	-0.2465	0.0000	0.0000
2346875.0000	2.7993	-0.9945	-0.4802	-1.1580	9.4905	2.5113	-0.4133	-0.6641	-0.5575	2348466.7969	-0.2636	0.2947	0.3733	0.0274	9.8038	0.8727	-0.2788	-0.6543	-0.4882	2348466.7969	0.1534	0.1206	0.0301	1.6131	5.1242	-8.0434	-0.5272	-0.1187	0.5044	2347949.2187	1.8981	-0.0247	-0.1752	0.5013	9.5263	2.8539	0.2471	-0.7263	0.0094	2348466.7969	3509014445.0015	3509012096.5347	-0.2758	0.9962	-0.1585	0.4804	9.6049	2.0410	0.4061	-0.6277	0.1832	2348466.7969	-0.0671	0.1989	-0.4658	-0.8683	5.2391	-8.3822	-0.7420	1.8739	0.5822	2345791.0156	1.0737	1.0141	-0.6339	0.4278	9.5547	-1.8756	0.2857	-0.7759	-0.2535	0.0000	0.0000
2346884.7656	3.1702	-0.1851	-0.8246	-1.0790	9.4141	2.4360	-0.4114	-0.6583	-0.5315	2348476.5625	-0.2636	0.2947	0.3733	0.2662	9.7258	0.8743	-0.2788	-0.6543	-0.4882	2348476.5625	0.1534	0.1206	0.0301	1.7689	5.1242	-8.0449	-0.5292	-0.1271	0.5242	2347958.9844	1.6838	1.1110	-0.4562	0.5779	9.4499	2.7767	0.2471	-0.7263	0.0094	2348476.5625	3509014445.0113	3509012096.5347	-0.2758	0.9962	-0.1585	0.4022	9.6810	1.8822	0.4020	-0.6191	0.1832	2348476.5625	-0.0671	0.1989	-0.4658	-0.9471	5.3161	-8.3822	-0.6920	1.8971	0.5469	2345800.7812	-1.6648	1.0595	-0.6759	0.3489	9.5555	-1.7979	0.3061	-0.7778	-0.2465	0.0000	0.0000
2346894.5312	3.1702	-0.1851	-0.8246	-1.3173	9.4141	2.5136	-0.4057	-0.6621	-0.5618	2348486.3281	-0.2053	2.1835	0.3149	0.3458	9.8038	0.8727	-0.2923	-0.6641	-0.4817	2348486.3281	0.1534	0.1206	0.0301	1.7689	5.1234	-8.1217	-0.5010	-0.1125	0.5088	2347968.7500	1.6838	1.1110	-0.4562	0.5772	9.5263	2.6987	0.2412	-0.7490	0.0304	2348486.3281	3509014445.0210	3509012096.5347	-0.2758	0.9962	-0.1585	0.4022	9.7596	1.9604	0.4163	-0.6426	0.2211	2348486.3281	-0.0671	0.1989	-0.4658	-0.9471	5.3161	-8.3822	-0.7160	1.8929	0.5469	2345810.5469	-1.6648	1.0595	-0.6759	0.3482	9.6312	-1.8764	0.2950	-0.7644	-0.2419	0.0000	0.0000
2346904.2969	3.1702	-0.1851	-0.8246	-1.4775	9.4141	2.4400	-0.4038	-0.6718	-0.5423	2348496.0937	-0.2053	2.1835	0.3149	0.2662	9.7250	0.7957	-0.2808	-0.6797	-0.4989	2348496.0937	0.0754	-0.0041	0.1665	1.7689	5.2042	-7.8921	-0.5312	-0.1333	0.5022	2347978.5156	1.6838	1.1110	-0.4562	0.5779	9.4499	2.7767	0.2431	-0.7263	0.0422	2348496.0937	3509014445.0308	3509012096.5347	-0.4916	1.5027	-0.3985	0.4804	9.6818	1.9612	0.4102	-0.6426	0.1979	2348496.0937	-0.1004	0.5104	-0.6783	-0.9471	5.3931	-8.3837	-0.7160	1.8929	0.5469	2345820.3125	-1.6648	1.0595	-0.6759	0.2693	9.5555	-1.7979	0.3098	-0.7759	-0.2535	0.0000	0.0000
2346914.0625	3.1379	0.1067	-1.0439	-1.2399	9.4141	2.2872	-0.4000	-0.6718	-0.5618	2348505.8594	-0.2053	2.1835	0.3149	0.2662	9.8023	0.7155	-0.2962	-0.6484	-0.4860	2348505.8594	0.0754	-0.0041	0.1665	1.7689	5.1250	-7.9681	-0.5312	-0.1333	0.5022	2347988.2812	1.5460	1.9476	-1.0194	0.5764	9.4499	2.6223	0.2294	-0.7387	0.0117	2348505.8594	3509014445.0406	3509012096.5347	-0.4916	1.5027	-0.3985	0.5587	9.6818	1.9612	0.4102	-0.6426	0.1979	2348505.8594	-0.1004	0.5104	-0.6783	-0.8675	5.2407	-8.3026	-0.7320	1.8992	0.5869	2345830.0781	-3.0760	1.5287	-0.3316	0.5058	9.5532	-2.0311	0.2876	-0.7644	-0.2419	0.0000	0.0000
2346923.8281	3.1379	0.1067	-1.0439	-1.3993	9.3377	2.2896	-0.4057	-0.6660	-0.5445	2348515.6250	0.0790	1.5288	0.1035	0.2662	9.8015	0.6369	-0.2962	-0.6484	-0.4860	2348515.6250	0.0754	-0.0041	0.1665	1.6910	5.1234	-8.1210	-0.5352	-0.1333	0.5220	2347998.0469	1.5460	1.9476	-1.0194	0.5006	9.4499	2.7775	0.2294	-0.7387	0.0117	2348515.6250	3509014445.0503	3509012096.5347	-0.4916	1.5027	-0.3985	0.4804	9.7588	1.8814	0.3898	-0.6340	0.1789	2348515.6250	-0.1004	0.5104	-0.6783	-0.9479	5.3145	-8.4617	-0.7180	1.8950	0.5516	2345839.8437	-3.0760	1.5287	-0.3316	0.3482	9.6312	-1.8764	0.3191	-0.7720	-0.2419	0.0000	0.0000
2346933.5937	3.1379	0.1067	-1.0439	-1.2414	9.4905	2.1361	-0.3981	-0.6524	-0.5597	2348525.3906	0.0790	1.5288	0.1035	0.3458	9.7242	0.7171	-0.2827	-0.6289	-0.4753	2348525.3906	0.0970	-0.4330	0.1315	1.7689	5.1242	-8.0449	-0.5151	-0.1313	0.4978	2348007.8125	1.5460	1.9476	-1.0194	0.6561	9.3735	2.8539	0.2451	-0.7284	0.0281	2348525.3906	3509014445.0601	3509012096.5347	-0.9375	1.1556	-0.8002	0.5587	9.6810	1.8822	0.3878	-0.6745	0.2189	2348525.3906	-0.0362	0.3202	-0.4980	-0.8675	5.3177	-8.3042	-0.7180	1.8992	0.5399	2345849.6094	-3.0760	1.5287	-0.3316	0.5081	9.5555	-1.7979	0.2950	-0.7625	-0.2373	0.0000	0.0000
2346943.3594	3.1379	0.1067	-1.0439	-1.2376	9.4141	2.5128	-0.4114	-0.6660	-0.5423	2348535.1562	0.0790	1.5288	0.1035	0.1866	9.7258	0.8743	-0.2769	-0.6699	-0.4968	2348535.1562	0.0970	-0.4330	0.1315	1.6910	5.1250	-7.9673	-0.5151	-0.1313	0.4978	2348017.5781	1.3470	1.0013	-0.4218	0.5779	9.4499	2.7767	0.2314	-0.7593	0.0375	2348535.1562	3509014445.0699	3509012096.5347	-0.9375	1.1556	-0.8002	0.7934	9.7596	1.9604	0.3878	-0.6745	0.2189	2348535.1562	-0.0362	0.3202	-0.4980	-0.9471	5.3161	-8.3822	-0.7180	1.8992	0.5399	2345859.3750	-3.0760	1.5287	-0.3316	0.5089	9.5563	-1.7201	0.3117	-0.7759	-0.2581	0.0000	0.0000
2346953.1250	3.0748	1.1659	-0.8792	-1.3978	9.4141	2.4392	-0.4133	-0.6621	-0.5575	2348544.9219	0.0790	1.5288	0.1035	0.2662	9.8038	0.8727	-0.2788	-0.6367	-0.4839	2348544.9219	0.0970	-0.4330	0.1315	1.6131	5.1242	-8.0434	-0.5211	-0.1396	0.5044	2348027.3437	1.3470	1.0013	-0.4218	0.7327	9.4499	2.7751	0.2314	-0.6975	0.0211	2348544.9219	3509014445.0796	3509012096.5347	-0.9375	1.1556	-0.8002	0.6369	9.6810	1.8822	0.4000	-0.6787	0.2042	2348544.9219	-0.0362	0.3202	-0.4980	-1.1055	5.2376	-8.4570	-0.7360	1.9013	0.5845	2345869.1406	-4.0259	1.3925	0.5096	0.5066	9.5539	-1.9534	0.3080	-0.7835	-0.2373	0.0000	0.0000
2346962.8906	3.0748	1.1659	-0.8792	-1.3188	9.4905	2.3625	-0.4190	-0.6544	-0.5358	2348554.6875	0.1614	1.2592	0.2947	0.3458	9.8023	0.7155	-0.2788	-0.6367	-0.4839	2348554.6875	0.0970	-0.4330	0.1315	1.7689	5.1250	-7.9681	-0.5392	-0.1542	0.5176	2348037.1094	1.3470	1.0013	-0.4218	0.5772	9.5263	2.6987	0.2314	-0.6975	0.0211	2348554.6875	3509014445.0894	3509012096.5347	-0.7214	-0.4513	-0.5253	0.5587	9.5263	1.9628	0.3939	-0.6723	0.1768	2348554.6875	-0.4120	0.3389	-0.6221	-0.8683	5.2391	-8.3822	-0.7060	1.9223	0.5469	2345878.9062	-4.0259	1.3925	0.5096	0.4285	9.4790	-1.7971	0.3135	-0.7759	-0.2373	0.0000	0.0000
2346972.6562	3.0748	1.1659	-0.8792	-1.3181	9.4905	2.4377	-0.4210	-0.6544	-0.5618	2348564.4531	0.1614	1.2592	0.2947	0.3458	9.6462	0.7186	-0.2808	-0.6328	-0.4710	2348564.4531	0.0381	-0.3623	-0.3081	1.7689	5.1250	-7.9681	-0.5111	-0.1583	0.5022	2348046.8750	1.6378	0.7360	-0.8387	0.6553	9.4499	2.7759	0.2373	-0.7305	0.0304	2348564.4531	3509014445.0992	3509012096.5347	-0.7214	-0.4513	-0.5253	0.5587	9.6025	1.8040	0.3959	-0.6447	0.2126	2348564.4531	-0.4120	0.3389	-0.6221	-0.8683	5.3161	-8.3837	-0.7080	1.9034	0.5446	2345888.6719	-4.0259	1.3925	0.5096	0.3466	9.4003	-2.0296	0.2968	-0.7644	-0.2442	0.0000	0.0000
2346982.4219	2.9257	1.6277	-0.8615	-1.3993	9.4905	2.2881	-0.3943	-0.6660	-0.5358	2348574.2187	0.1614	1.2592	0.2947	0.3458	9.7242	0.7171	-0.2731	-0.6641	-0.4968	2348574.2187	0.0381	-0.3623	-0.3081	1.7689	5.2034	-7.9689	-0.5111	-0.1583	0.5022	2348056.6406	1.6378	0.7360	-0.8387	0.5779	9.4499	2.7767	0.2549	-0.7284	0.0398	2348574.2187	3509014445.1089	3509012096.5347	-0.7214	-0.4513	-0.5253	0.6369	9.6802	1.8032	0.3959	-0.6447	0.2126	2348574.2187	-0.4120	0.3389	-0.6221	-0.8675	5.2407	-8.3026	-0.7080	1.9034	0.5446	2345898.4375	-3.5380	1.4681	0.6264	0.3482	9.3254	-1.8733	0.3117	-0.7969	-0.2465	0.0000	0.0000
2346992.1875	2.9257	1.6277	-0.8615	-1.2392	9.5668	2.3609	-0.4038	-0.6796	-0.5553	2348583.9844	0.3229	0.7265	0.3600	0.4254	9.6462	0.7186	-0.2750	-0.6309	-0.4731	2348583.9844	0.0381	-0.3623	-0.3081	1.6910	5.0458	-8.0434	-0.5030	-0.1396	0.4978	2348066.4062	1.6378	0.7360	-0.8387	0.6546	9.4499	2.6987	0.2549	-0.7284	0.0398	2348583.9844	3509014445.1187	3509012096.5347	-0.7214	-0.4513	-0.5253	0.5587	9.6810	1.8822	0.4020	-0.6830	0.2084	2348583.9844	-0.4120	0.3389	-0.6221	-0.7887	5.2407	-8.3042	-0.7260	1.8992	0.5869	2345908.2031	-3.5380	1.4681	0.6264	0.4270	9.4775	-1.9526	0.2950	-0.7989	-0.2396	0.0000	0.0000
2347001.9531	2.9257	1.6277	-0.8615	-1.0790	9.4141	2.4360	-0.4000	-0.6641	-0.5336	2348593.7500	0.3229	0.7265	0.3600	0.1866	9.7235	0.6385	-0.2750	-0.6309	-0.4731	2348593.7500	0.1615	-0.2279	-0.1863	1.6131	5.2034	-7.9673	-0.5352	-0.1479	0.5154	2348076.1719	1.6378	0.7360	-0.8387	0.6546	9.4499	2.6987	0.2451	-0.7016	0.0117	2348593.7500	3509014445.1284	3509012096.5347	-0.7062	0.2669	-0.5334	0.6369	9.6017	1.7250	0.3898	-0.6489	0.1811	2348593.7500	-0.0980	0.3967	-0.4368	-0.8675	5.2407	-8.3026	-0.6940	1.8887	0.5423	2345917.9687	-3.5380	1.4681	0.6264	0.4270	9.5539	-1.9534	0.2913	-0.8238	-0.2488	0.0000	0.0000
2347011.7187	2.9061	0.0477	-1.0549	-1.2376	9.4141	2.5128	-0.4095	-0.6796	-0.5597	2348603.5156	0.3229	0.7265	0.3600	0.1866	9.8038	0.8727	-0.2865	-0.6465	-0.4753	2348603.5156	0.1615	-0.2279	-0.1863	1.8467	5.1265	-7.8152	-0.5352	-0.1479	0.5154	2348085.9375	1.6685	0.0553	-0.8320	0.6546	9.3735	2.6995	0.2333	-0.7037	0.0304	2348603.5156	3509014445.1382	3509012096.5347	-0.7062	0.2669	-0.5334	0.7152	9.6041	1.9620	0.3898	-0.6489	0.1811	2348603.5156	-0.0980	0.3967	-0.4368	-0.8683	5.3161	-8.3837	-0.7200	1.9349	0.5469	2345927.7344	-2.7022	1.4530	0.5475	0.2655	9.4752	-2.1859	0.2968	-0.7874	-0.2419	0.0000	0.0000
2347021.4844	2.9061	0.0477	-1.0549	-1.1572	9.3377	2.5880	-0.4210	-0.6544	-0.5423	2348613.2812	-0.3715	0.3720	0.5434	0.2662	9.7242	0.7171	-0.2654	-0.6543	-0.4989	2348613.2812	0.1615	-0.2279	-0.1863	1.7689	5.1234	-8.1217	-0.5171	-0.1229	0.5132	2348095.7031	1.6685	0.0553	-0.8320	0.5772	9.4499	2.6995	0.2412	-0.7531	0.0422	2348613.2812	3509014445.1480	3509012096.5347	-0.7062	0.2669	-0.5334	0.7152	9.5255	1.8838	0.3980	-0.6638	0.2126	2348613.2812	-0.0980	0.3967	-0.4368	-0.7895	5.2391	-8.3838	-0.7200	1.9349	0.5469	2345937.5000	-2.7022	1.4530	0.5475	0.5074	9.4783	-1.8749	0.3080	-0.8142	-0.2488	0.0000	0.0000
2347031.2500	2.9061	0.0477	-1.0549	-1.1587	9.4905	2.4361	-0.4152	-0.6641	-0.5683	2348623.0469	-0.3715	0.3720	0.5434	0.2662	9.7242	0.7171	-0.2654	-0.6543	-0.4989	2348623.0469	-0.0875	0.9117	-0.2941	1.6910	5.1250	-7.9673	-0.5010	-0.1083	0.4912	2348105.4687	1.6685	0.0553	-0.8320	0.5006	9.6026	2.7759	0.2412	-0.7531	0.0422	2348623.0469	3509014445.1577	3509012096.5347	-0.7455	-1.0013	0.1125	0.6369	9.6017	1.7250	0.4102	-0.6723	0.2232	2348623.0469	0.1053	0.3267	-0.3971	-0.9471	5.2391	-8.3806	-0.7260	1.8739	0.5822	2345947.2656	-2.7022	1.4530	0.5475	0.5058	9.4767	-2.0304	0.2931	-0.8065	-0.2350	0.0000	0.0000
2347041.0156	3.3074	-1.0457	-1.2370	-1.2399	9.4141	2.2872	-0.4133	-0.6447	-0.5358	2348632.8125	-0.3715	0.3720	0.5434	0.2662	9.7258	0.8743	-0.2750	-0.6445	-0.4774	2348632.8125	-0.0875	0.9117	-0.2941	1.8467	5.2026	-8.0465	-0.5312	-0.1604	0.5000	2348115.2344	2.0205	0.1912	-0.4550	0.7327	9.5263	2.7744	0.2471	-0.7078	0.0094	2348632.8125	3509014445.1675	3509012096.5347	-0.7455	-1.0013	0.1125	0.5587	9.6802	1.8032	0.4102	-0.6681	0.1811	2348632.8125	0.1053	0.3267	-0.3971	-0.9471	5.1621	-8.3791	-0.7200	1.9181	0.5469	2345957.0312	-2.0286	0.8930	0.9752	0.4262	9.5532	-2.0311	0.2987	-0.8008	-0.2419	0.0000	0.0000
2347050.7812	3.3074	-1.0457	-1.2370	-1.2391	9.3377	2.3632	-0.4190	-0.6718	-0.5640	2348642.5781	-0.2557	-0.2068	0.6550	0.3458	9.6478	0.8758	-0.2827	-0.6445	-0.4774	2348642.5781	-0.0875	0.9117	-0.2941	1.7689	5.1242	-8.0449	-0.5312	-0.1604	0.5000	2348125.0000	2.0205	0.1912	-0.4550	0.5787	9.4499	2.8539	0.2412	-0.7037	0.0281	2348642.5781	3509014445.1773	3509012096.5347	-0.7455	-1.0013	0.1125	0.8716	9.6810	1.8822	0.4102	-0.6681	0.1811	2348642.5781	0.1053	0.3267	-0.3971	-0.9463	5.1637	-8.2995	-0.7240	1.9055	0.5516	2345966.7969	-2.0286	0.8930	0.9752	0.4254	9.3995	-2.1074	0.2968	-0.7759	-0.2350	0.0000	0.0000
2347060.5469	3.3074	-1.0457	-1.2370	-1.3181	9.4905	2.4377	-0.4152	-0.6738	-0.5315	2348652.3437	-0.2557	-0.2068	0.6550	0.1070	9.7250	0.7957	-0.2712	-0.6367	-0.5011	2348652.3437	0.1266	0.2916	-0.0744	1.7689	5.2026	-8.0457	-0.5272	-0.1229	0.5176	2348134.7656	2.0205	0.1912	-0.4550	0.5772	9.4499	2.6995	0.2373	-0.7449	0.0492	2348652.3437	3509014445.1870	3509012096.5347	-0.8473	-0.3278	0.5941	0.6369	9.6033	1.8830	0.3878	-0.6766	0.1937	2348652.3437	-0.2359	0.3185	-0.1764	-0.8699	5.2359	-8.5413	-0.7240	1.9055	0.5516	2345976.5625	-2.0286	0.8930	0.9752	0.5058	9.4767	-2.0304	0.3061	-0.7931	-0.2419	0.0000	0.0000
2347070.3125	3.3074	-1.0457	-1.2370	-1.3166	9.4141	2.5888	-0.4076	-0.6796	-0.5597	2348662.1094	-0.2557	-0.2068	0.6550	0.2662	9.7266	0.9529	-0.2712	-0.6367	-0.5011	2348662.1094	0.1266	0.2916	-0.0744	1.6910	5.1234	-8.1210	-0.5091	-0.1750	0.4868	2348144.5312	2.4032	-0.8867	0.2742	0.5764	9.4499	2.6223	0.2373	-0.7449	0.0492	2348662.1094	3509014445.1968	3509012096.5347	-0.8473	-0.3278	0.5941	0.7152	9.6802	1.8032	0.4143	-0.6830	0.2126	2348662.1094	-0.2359	0.3185	-0.1764	-0.7895	5.1621	-8.3822	-0.7360	1.9139	0.5657	2345986.3281	-2.0286	0.8930	0.9752	0.4262	9.4767	-2.0304	0.2913	-0.7989	-0.2373	0.0000	0.0000
2347080.0781	3.3015	1.9308	-1.4769	-1.3188	9.4141	2.3632	-0.4000	-0.6680	-0.5466	2348671.8750	-0.2557	-0.2068	0.6550	0.2662	9.6454	0.6400	-0.2827	-0.6289	-0.4774	2348671.8750	0.1266	0.2916	-0.0744	1.6910	5.0466	-7.9665	-0.5091	-0.1750	0.4868	2348154.2969	2.4032	-0.8867	0.2742	0.5772	9.5263	2.6987	0.2431	-0.7305	0.0117	2348671.8750	3509014445.2066	3509012096.5347	-0.8473	-0.3278	0.5941	0.7152	9.6810	1.8822	0.4143	-0.6830	0.2126	2348671.8750	-0.2359	0.3185	-0.1764	-0.8699	5.1589	-8.5398	-0.7020	1.9286	0.5469	2345996.0937	-0.8594	0.4995	0.7618	0.4270	9.4775	-1.9526	0.2987	-0.7778	-0.2442	0.0000	0.0000
2347089.8437	3.3015	1.9308	-1.4769	-1.1579	9.4141	2.5120	-0.4038	-0.6796	-0.5640	2348681.6406	-0.0567	0.0667	0.6215	0.4254	9.7250	0.7957	-0.2731	-0.6562	-0.4774	2348681.6406	0.1266	0.2916	-0.0744	1.7689	5.1242	-8.0449	-0.5493	-0.1500	0.5154	2348164.0625	2.4032	-0.8867	0.2742	0.5764	9.4499	2.6223	0.2255	-0.7490	0.0211	2348681.6406	3509014445.2163	3509012096.5347	-0.5719	-0.8043	0.7118	0.6369	9.6810	1.8822	0.3918	-0.6511	0.1789	2348681.6406	-0.0662	0.3937	-0.3776	-0.8683	5.3161	-8.3837	-0.7020	1.9286	0.5469	2346005.8594	-0.8594	0.4995	0.7618	0.4270	9.4010	-1.9518	0.3080	-0.7893	-0.2373	0.0000	0.0000
2347099.6094	3.3015	1.9308	-1.4769	-1.2391	9.3377	2.3632	-0.4019	-0.6699	-0.5575	2348691.4062	-0.0567	0.0667	0.6215	0.3458	9.8811	0.7926	-0.2750	-0.6445	-0.4882	2348691.4062	-0.2276	-0.0579	-0.0591	1.8467	5.0458	-8.0449	-0.5412	-0.1333	0.5000	2348173.8281	2.2807	-1.3649	1.0551	0.6546	9.4499	2.6987	0.2255	-0.7490	0.0211	2348691.4062	3509014445.2261	3509012096.5347	-0.5719	-0.8043	0.7118	0.6369	9.6818	1.9612	0.4041	-0.6362	0.1874	2348691.4062	-0.0662	0.3937	-0.3776	-0.8683	5.3161	-8.3837	-0.7300	1.9286	0.5540	2346015.6250	-0.8594	0.4995	0.7618	0.3458	9.5524	-2.1089	0.2950	-0.8103	-0.2535	0.0000	0.0000
2347109.3750	3.1539	0.9043	-1.4145	-1.1587	9.4141	2.4368	-0.4190	-0.6718	-0.5488	2348701.1719	-0.0567	0.0667	0.6215	0.4254	9.8803	0.7139	-0.2750	-0.6445	-0.4882	2348701.1719	-0.2276	-0.0579	-0.0591	1.7689	5.0473	-7.8905	-0.5211	-0.1458	0.5088	2348183.5937	2.2807	-1.3649	1.0551	0.5779	9.5263	2.7759	0.2412	-0.7284	0.0468	2348701.1719	3509014445.2359	3509012096.5347	-0.5719	-0.8043	0.7118	0.4804	9.6033	1.8830	0.4020	-0.6617	0.2084	2348701.1719	-0.0662	0.3937	-0.3776	-0.7115	5.1605	-8.4634	-0.7160	1.9160	0.5775	2346025.3906	-0.0426	0.5751	0.3048	0.3458	9.4759	-2.1081	0.3006	-0.8142	-0.2419	0.0000	0.0000
2347119.1406	3.1539	0.9043	-1.4145	-1.1579	9.3377	2.5128	-0.4095	-0.6718	-0.5466	2348710.9375	-0.6055	-0.5762	1.0695	0.1866	9.8023	0.7155	-0.2942	-0.6621	-0.4817	2348710.9375	-0.2276	-0.0579	-0.0591	1.7689	5.1242	-8.0449	-0.5211	-0.1458	0.5088	2348193.3594	2.2807	-1.3649	1.0551	0.5795	9.4499	2.9311	0.2314	-0.7305	0.0187	2348710.9375	3509014445.2456	3509012096.5347	-0.5417	-0.4837	0.6844	0.5587	9.6802	1.8032	0.4020	-0.6617	0.2084	2348710.9375	-0.0662	0.3937	-0.3776	-0.8675	5.3177	-8.3042	-0.7000	1.8950	0.5376	2346035.1562	-0.0426	0.5751	0.3048	0.3458	9.5524	-2.1089	0.3061	-0.7739	-0.2419	0.0000	0.0000
2347128.9062	3.1539	0.9043	-1.4145	-1.1579	9.3377	2.5128	-0.4248	-0.6757	-0.5575	2348720.7031	-0.6055	-0.5762	1.0695	0.2662	9.8023	0.7155	-0.2673	-0.6367	-0.4796	2348720.7031	0.4568	0.9441	0.1113	1.6910	5.0458	-8.0434	-0.5392	-0.1667	0.5044	2348203.1250	2.2807	-1.3649	1.0551	0.5772	9.4499	2.6995	0.2392	-0.7140	0.0234	2348720.7031	3509014445.2554	3509012096.5347	-0.5417	-0.4837	0.6844	0.5587	9.6802	1.8032	0.4122	-0.6319	0.1832	2348720.7031	0.0897	0.3880	-0.3973	-0.8683	5.3161	-8.3837	-0.7000	1.8950	0.5376	2346044.9219	-0.0426	0.5751	0.3048	0.4254	9.3995	-2.1074	0.3135	-0.7625	-0.2281	0.0000	0.0000
2347138.6719	3.2831	-1.5364	-0.6647	-1.1564	9.4141	2.6624	-0.4057	-0.6583	-0.5597	2348730.4687	-0.6055	-0.5762	1.0695	0.1070	9.7266	0.9529	-0.2712	-0.6504	-0.4968	2348730.4687	0.4568	0.9441	0.1113	1.6910	5.1258	-7.8905	-0.5372	-0.1458	0.5154	2348212.8906	2.2501	-1.2252	0.6768	0.6561	9.5263	2.8523	0.2392	-0.7140	0.0234	2348730.4687	3509014445.2652	3509012096.5347	-0.5417	-0.4837	0.6844	0.4804	9.7572	1.7234	0.3878	-0.6596	0.1937	2348730.4687	0.0897	0.3880	-0.3973	-1.0267	5.3146	-8.4601	-0.7220	1.9265	0.5610	2346054.6875	-0.6052	-0.1514	0.3273	0.5050	9.6288	-2.1097	0.3006	-0.7701	-0.2442	0.0000	0.0000
2347148.4375	3.2831	-1.5364	-0.6647	-1.3978	9.4141	2.4392	-0.4152	-0.6932	-0.5597	2348740.2344	-0.4776	0.2786	0.7269	0.1070	9.8023	0.7155	-0.2712	-0.6504	-0.4968	2348740.2344	0.4568	0.9441	0.1113	1.8467	5.1250	-7.9689	-0.5372	-0.1458	0.5154	2348222.6562	2.2501	-1.2252	0.6768	0.7319	9.4499	2.6979	0.2451	-0.7654	0.0304	2348740.2344	3509014445.2749	3509012096.5347	-0.5417	-0.4837	0.6844	0.4804	9.6810	1.8822	0.3878	-0.6596	0.1937	2348740.2344	0.0897	0.3880	-0.3973	-0.8675	5.1637	-8.3011	-0.7280	1.9055	0.5822	2346064.4531	-0.6052	-0.1514	0.3273	0.3458	9.4759	-2.1081	0.3006	-0.7969	-0.2396	0.0000	0.0000
2347158.2031	3.2831	-1.5364	-0.6647	-1.3181	9.4905	2.4377	-0.4057	-0.6835	-0.5445	2348750.0000	-0.4776	0.2786	0.7269	0.0274	9.7242	0.7171	-0.2846	-0.6562	-0.4710	2348750.0000	0.2059	0.4785	-0.2557	1.7689	5.0458	-8.0441	-0.5231	-0.1500	0.5044	2348232.4219	2.2501	-1.2252	0.6768	0.6553	9.4499	2.7759	0.2333	-0.7058	0.0164	2348750.0000	3509014445.2847	3509012096.5347	-0.1501	0.8727	0.2232	0.4804	9.6802	1.8032	0.4122	-0.6468	0.2147	2348750.0000	-0.0051	0.2130	-0.5129	-1.0259	5.3161	-8.3806	-0.6960	1.9286	0.5399	2346074.2187	-0.6052	-0.1514	0.3273	0.3450	9.5516	-2.1866	0.2727	-0.8065	-0.2396	0.0000	0.0000
2347167.9687	3.2434	-1.9962	-0.1081	-1.2376	9.3377	2.5136	-0.4171	-0.6932	-0.5510	2348759.7656	-0.4776	0.2786	0.7269	0.1866	9.8023	0.7155	-0.2750	-0.6641	-0.4753	2348759.7656	0.2059	0.4785	-0.2557	1.6910	5.0466	-7.9665	-0.5151	-0.1437	0.5000	2348242.1875	1.9287	-1.1314	0.0561	0.5772	9.4499	2.6995	0.2255	-0.7346	0.0141	2348759.7656	3509014445.2945	3509012096.5347	-0.1501	0.8727	0.2232	0.4804	9.6041	1.9620	0.4020	-0.6766	0.1937	2348759.7656	-0.0051	0.2130	-0.5129	-0.9471	5.2391	-8.3806	-0.6960	1.9286	0.5399	2346083.9844	-1.2900	-1.1806	0.2941	0.3458	9.5524	-2.1089	0.3080	-0.7605	-0.2327	0.0000	0.0000
2347177.7344	3.2434	-1.9962	-0.1081	-1.2391	9.4905	2.3617	-0.4114	-0.6854	-0.5553	2348769.5312	0.0007	1.4260	-0.0613	0.1070	9.8031	0.7941	-0.2827	-0.6348	-0.4946	2348769.5312	0.2059	0.4785	-0.2557	1.8467	5.0465	-7.9681	-0.5412	-0.1396	0.5132	2348251.9531	1.9287	-1.1314	0.0561	0.5764	9.4499	2.6223	0.2255	-0.7346	0.0141	2348769.5312	3509014445.3042	3509012096.5347	-0.1501	0.8727	0.2232	0.5587	9.6818	1.9612	0.4020	-0.6191	0.1916	2348769.5312	-0.0051	0.2130	-0.5129	-0.7895	5.2391	-8.3838	-0.7280	1.9244	0.5610	2346093.7500	-1.2900	-1.1806	0.2941	0.4254	9.4759	-2.1081	0.3061	-0.7893	-0.2488	0.0000	0.0000
2347187.5000	3.2434	-1.9962	-0.1081	-1.2391	9.4141	2.3624	-0.4133	-0.6757	-0.5618	2348779.2969	0.0007	1.4260	-0.0613	0.1866	9.7258	0.8743	-0.2827	-0.6348	-0.4946	2348779.2969	0.2059	0.4785	-0.2557	1.7689	5.1257	-7.8913	-0.5412	-0.1396	0.5132	2348261.7187	1.9287	-1.1314	0.0561	0.7319	9.4499	2.6979	0.2412	-0.7366	0.0422	2348779.2969	3509014445.3140	3509012096.5347	-0.3809	1.7461	0.0021	0.6369	9.7588	1.8814	0.4020	-0.6191	0.1916	2348779.2969	-0.2542	0.0994	-0.4442	-0.9471	5.3161	-8.3822	-0.7100	1.9181	0.5751	2346103.5156	-1.2900	-1.1806	0.2941	0.3458	9.4759	-2.1081	0.3135	-0.8046	-0.2396	0.0000	0.0000
2347197.2656	3.2434	-1.9962	-0.1081	-1.3188	9.3377	2.3640	-0.4038	-0.6680	-0.5575	2348789.0625	0.0007	1.4260	-0.0613	0.2662	9.7258	0.8743	-0.3019	-0.6680	-0.4774	2348789.0625	0.1069	0.0606	-0.0157	1.7689	5.1257	-7.8913	-0.4990	-0.1167	0.5044	2348271.4844	2.0970	-0.6269	-0.2847	0.5013	9.5263	2.8539	0.2294	-0.7490	0.0187	2348789.0625	3509014445.3238	3509012096.5347	-0.3809	1.7461	0.0021	0.7152	9.6033	1.8830	0.4184	-0.6617	0.2189	2348789.0625	-0.2542	0.0994	-0.4442	-0.9471	5.2391	-8.3806	-0.7080	1.9181	0.5469	2346113.2812	-1.2900	-1.1806	0.2941	0.4247	9.4752	-2.1859	0.2931	-0.7950	-0.2373	0.0000	0.0000
2347207.0312	3.1019	-1.8874	-0.3058	-1.2384	9.3377	2.4384	-0.4114	-0.6680	-0.5510	2348798.8281	0.0007	1.4260	-0.0613	0.2662	9.7274	1.0315	-0.2788	-0.6309	-0.4817	2348798.8281	0.1069	0.0606	-0.0157	1.6910	5.1265	-7.8137	-0.5211	-0.1146	0.4956	2348281.2500	2.0970	-0.6269	-0.2847	0.5764	9.4499	2.6223	0.2294	-0.7490	0.0187	2348798.8281	3509014445.3335	3509012096.5347	-0.3809	1.7461	0.0021	0.6369	9.6802	1.8032	0.3959	-0.6511	0.2042	2348798.8281	-0.2542	0.0994	-0.4442	-0.9471	5.3931	-8.3837	-0.7080	1.9181	0.5469	2346123.0469	-0.8364	-1.1352	0.0183	0.3458	9.4759	-2.1081	0.3080	-0.7893	-0.2419	0.0000	0.0000
2347216.7969	3.1019	-1.8874	-0.3058	-1.2391	9.4141	2.3624	-0.4152	-0.6680	-0.5510	2348808.5937	0.4763	1.8498	-0.2827	0.2662	9.6486	0.9544	-0.2788	-0.6309	-0.4817	2348808.5937	0.1069	0.0606	-0.0157	1.7689	5.1242	-8.0449	-0.5211	-0.1146	0.4956	2348291.0156	2.0970	-0.6269	-0.2847	0.5787	9.4499	2.8539	0.2196	-0.7202	0.0187	2348808.5937	3509014445.3433	3509012096.5347	-0.4268	1.0130	-0.0205	0.6369	9.5255	1.8838	0.3959	-0.6511	0.2042	2348808.5937	-0.2542	0.0994	-0.4442	-0.8691	5.2375	-8.4617	-0.7180	1.9097	0.5563	2346132.8125	-0.8364	-1.1352	0.0183	0.4247	9.4752	-2.1859	0.2987	-0.8046	-0.2373	0.0000	0.0000
2347226.5625	3.1019	-1.8874	-0.3058	-1.0798	9.4141	2.3608	-0.4019	-0.6505	-0.5293	2348818.3594	0.4763	1.8498	-0.2827	0.2662	9.8031	0.7941	-0.2827	-0.6543	-0.5011	2348818.3594	-0.0932	-0.1313	-0.2893	1.8467	5.2803	-8.1241	-0.5252	-0.1313	0.5242	2348300.7812	1.6685	0.5832	-0.6589	0.5780	9.2971	2.7782	0.2392	-0.7469	0.0445	2348818.3594	3509014445.3531	3509012096.5347	-0.4268	1.0130	-0.0205	0.6369	9.6802	1.8032	0.4000	-0.6191	0.1895	2348818.3594	-0.0504	0.2711	-0.3618	-0.8691	5.2375	-8.4617	-0.7100	1.9286	0.5822	2346142.5781	-0.8364	-1.1352	0.0183	0.3450	9.5516	-2.1866	0.3043	-0.7950	-0.2373	0.0000	0.0000
2347236.3281	2.9697	-1.1497	-1.1251	-1.3985	9.4141	2.3640	-0.4076	-0.6835	-0.5553	2348828.1250	0.4763	1.8498	-0.2827	0.2662	9.7258	0.8743	-0.2769	-0.6543	-0.4860	2348828.1250	-0.0932	-0.1313	-0.2893	1.7689	5.1250	-7.9681	-0.5050	-0.1229	0.5154	2348310.5469	1.6685	0.5832	-0.6589	0.5779	9.4499	2.7767	0.2510	-0.7181	0.0164	2348828.1250	3509014445.3628	3509012096.5347	-0.4268	1.0130	-0.0205	0.5587	9.6795	1.7242	0.4000	-0.6532	0.2147	2348828.1250	-0.0504	0.2711	-0.3618	-0.7887	5.3176	-8.3058	-0.7100	1.9097	0.5469	2346152.3437	-0.3670	-1.7860	-0.1975	0.3466	9.4003	-2.0296	0.2857	-0.7759	-0.2396	0.0000	0.0000
2347246.0937	2.9697	-1.1497	-1.1251	-1.1587	9.5668	2.4353	-0.4152	-0.6874	-0.5445	2348837.8906	0.2105	1.7844	-0.4868	0.2662	9.8031	0.7941	-0.2750	-0.6660	-0.4774	2348837.8906	-0.0932	-0.1313	-0.2893	1.8467	5.1242	-8.0457	-0.5191	-0.1333	0.5066	2348320.3125	1.6685	0.5832	-0.6589	0.5006	9.4499	2.7775	0.2510	-0.7181	0.0164	2348837.8906	3509014445.3726	3509012096.5347	-0.0002	0.7795	-0.0228	0.5587	9.6025	1.8040	0.3939	-0.6660	0.2105	2348837.8906	-0.0504	0.2711	-0.3618	-0.8683	5.3931	-8.3853	-0.7100	1.9097	0.5469	2346162.1094	-0.3670	-1.7860	-0.1975	0.3458	9.5524	-2.1089	0.3080	-0.7739	-0.2281	0.0000	0.0000
2347255.8594	2.9697	-1.1497	-1.1251	-1.2384	9.4905	2.4369	-0.4171	-0.6874	-0.5640	2348847.6562	0.2105	1.7844	-0.4868	0.1866	9.7250	0.7957	-0.2750	-0.6660	-0.4774	2348847.6562	-0.2085	0.1434	-0.1637	1.7689	5.2034	-7.9689	-0.5191	-0.1333	0.5066	2348330.0781	1.6685	0.5832	-0.6589	0.6553	9.5263	2.7751	0.2353	-0.7160	0.0141	2348847.6562	3509014445.3824	3509012096.5347	-0.0002	0.7795	-0.0228	0.6369	9.6802	1.8032	0.3939	-0.6660	0.2105	2348847.6562	-0.1126	0.6372	-0.3336	-0.8675	5.2407	-8.3026	-0.7240	1.9328	0.5634	2346171.8750	-0.3670	-1.7860	-0.1975	0.3458	9.5524	-2.1089	0.2950	-0.7644	-0.2327	0.0000	0.0000
2347265.6250	2.9287	-0.1827	-1.3495	-1.2384	9.4141	2.4376	-0.4076	-0.6835	-0.5336	2348857.4219	0.2105	1.7844	-0.4868	0.2662	9.7250	0.7957	-0.2769	-0.6660	-0.4903	2348857.4219	-0.2085	0.1434	-0.1637	1.6910	5.2795	-8.1994	-0.5392	-0.1271	0.5154	2348339.8437	1.8062	0.2991	-0.8684	0.4998	9.4499	2.7003	0.2412	-0.7346	0.0445	2348857.4219	3509014445.3921	3509012096.5347	-0.0002	0.7795	-0.0228	0.4804	9.7588	1.8814	0.3898	-0.6574	0.1874	2348857.4219	-0.1126	0.6372	-0.3336	-0.8683	5.2391	-8.3822	-0.7280	1.8950	0.5751	2346181.6406	0.3193	-1.6498	-0.0128	0.3443	9.3979	-2.2629	0.3135	-0.7969	-0.2396	0.0000	0.0000
2347275.3906	2.9287	-0.1827	-1.3495	-1.0805	9.4141	2.2856	-0.3943	-0.6485	-0.5358	2348867.1875	-0.2666	1.3789	-0.4010	0.1866	9.6470	0.7972	-0.2827	-0.6738	-0.4774	2348867.1875	-0.2085	0.1434	-0.1637	1.6910	5.1250	-7.9673	-0.5171	-0.1396	0.5088	2348349.6094	1.8062	0.2991	-0.8684	0.5787	9.4499	2.8539	0.2196	-0.7449	0.0117	2348867.1875	3509014445.4019	3509012096.5347	-0.0002	0.7795	-0.0228	0.6369	9.7580	1.8024	0.3980	-0.6936	0.2042	2348867.1875	-0.1126	0.6372	-0.3336	-0.8691	5.2375	-8.4617	-0.6960	1.9349	0.5399	2346191.4062	0.3193	-1.6498	-0.0128	0.3458	9.4759	-2.1081	0.2931	-0.7625	-0.2419	0.0000	0.0000
2347285.1562	2.9287	-0.1827	-1.3495	-1.2384	9.4141	2.4376	-0.4038	-0.6505	-0.5358	2348876.9531	-0.2666	1.3789	-0.4010	0.4254	9.8038	0.8727	-0.2750	-0.6309	-0.4753	2348876.9531	0.0185	0.1703	-0.0897	1.7689	5.1242	-8.0449	-0.5171	-0.1396	0.5088	2348359.3750	1.8062	0.2991	-0.8684	0.5772	9.5263	2.6987	0.2196	-0.7449	0.0117	2348876.9531	3509014445.4117	3509012096.5347	0.3338	1.1429	-0.1417	0.4804	9.6795	1.7242	0.3980	-0.6936	0.2042	2348876.9531	-0.0185	0.1764	-0.2867	-0.9471	5.3161	-8.3822	-0.6960	1.9349	0.5399	2346201.1719	0.3193	-1.6498	-0.0128	0.4262	9.5532	-2.0311	0.3210	-0.7701	-0.2304	0.0000	0.0000
2347294.9219	2.9956	-0.9351	-0.7099	-1.2391	9.4141	2.3624	-0.4019	-0.6485	-0.5531	2348886.7187	-0.2666	1.3789	-0.4010	0.3458	9.6470	0.7972	-0.2750	-0.6309	-0.4753	2348886.7187	0.0185	0.1703	-0.0897	1.8467	5.0473	-7.8913	-0.5171	-0.1437	0.5066	2348369.1406	1.6838	-0.4768	-0.5789	0.6553	9.4499	2.7759	0.2412	-0.6955	0.0094	2348886.7187	3509014445.4214	3509012096.5347	0.3338	1.1429	-0.1417	0.6369	9.6818	1.9612	0.4020	-0.7085	0.2105	2348886.7187	-0.0185	0.1764	-0.2867	-0.8683	5.2391	-8.3822	-0.7300	1.9286	0.5728	2346210.9375	0.1847	-1.3168	0.2199	0.4254	9.3995	-2.1074	0.2876	-0.7720	-0.2396	0.0000	0.0000
2347304.6875	2.9956	-0.9351	-0.7099	-1.2384	9.3377	2.4384	-0.3981	-0.6485	-0.5249	2348896.4844	0.1067	0.0770	-0.1383	0.5050	9.7258	0.8743	-0.2885	-0.6758	-0.5011	2348896.4844	0.0185	0.1703	-0.0897	1.7689	5.1234	-8.1217	-0.5473	-0.1625	0.5176	2348378.9062	1.6838	-0.4768	-0.5789	0.4998	9.6026	2.6987	0.2471	-0.7654	0.0351	2348896.4844	3509014445.4312	3509012096.5347	0.3338	1.1429	-0.1417	0.5587	9.7596	1.9604	0.4041	-0.6745	0.1853	2348896.4844	-0.0185	0.1764	-0.2867	-0.7107	5.0851	-8.3823	-0.7060	1.9013	0.5751	2346220.7031	0.1847	-1.3168	0.2199	0.3443	9.4744	-2.2636	0.3173	-0.7720	-0.2442	0.0000	0.0000
2347314.4531	2.9956	-0.9351	-0.7099	-1.3182	10.4833	2.4277	-0.3981	-0.6660	-0.5531	2348906.2500	0.1067	0.0770	-0.1383	0.4254	9.8795	0.6353	-0.2750	-0.6289	-0.4796	2348906.2500	0.0185	0.1703	-0.0897	1.7689	5.0466	-7.9673	-0.5191	-0.1458	0.5044	2348388.6719	1.6838	-0.4768	-0.5789	0.4998	9.5263	2.6995	0.2471	-0.7654	0.0351	2348906.2500	3509014445.4409	3509012096.5347	-0.1375	1.1476	-0.0345	0.6369	9.6041	1.9620	0.4041	-0.6745	0.1958	2348906.2500	-0.0204	0.2279	-0.4825	-0.9479	5.0066	-8.4556	-0.7060	1.9013	0.5751	2346230.4687	0.1847	-1.3168	0.2199	0.3458	9.6288	-2.1097	0.3024	-0.7893	-0.2327	0.0000	0.0000
2347324.2187	2.9956	-0.9351	-0.7099	-1.3970	9.4141	2.5144	-0.4190	-0.6718	-0.5315	2348916.0156	0.1067	0.0770	-0.1383	0.3458	9.7266	0.9529	-0.2788	-0.6348	-0.4796	2348916.0156	-0.0009	-0.0436	-0.1221	1.7689	5.0458	-8.0441	-0.5191	-0.1458	0.5044	2348398.4375	2.0205	-1.3745	0.2465	0.4224	9.4499	2.7010	0.2333	-0.7366	0.0234	2348916.0156	3509014445.4507	3509012096.5347	-0.1375	1.1476	-0.0345	0.6369	9.6802	1.8032	0.4041	-0.6745	0.1958	2348916.0156	-0.0204	0.2279	-0.4825	-0.8675	5.2407	-8.3026	-0.7020	1.9139	0.5376	2346240.2344	0.1847	-1.3168	0.2199	0.3451	9.4752	-2.1859	0.3135	-0.7720	-0.2396	0.0000	0.0000
2347333.9844	2.8827	0.6462	-0.9822	-1.2384	9.4141	2.4376	-0.4076	-0.6738	-0.5575	2348925.7812	0.1067	0.0770	-0.1383	0.1866	9.7250	0.7957	-0.2788	-0.6348	-0.4796	2348925.7812	-0.0009	-0.0436	-0.1221	1.7689	5.1250	-7.9681	-0.5111	-0.1375	0.4978	2348408.2031	2.0205	-1.3745	0.2465	0.4990	9.6026	2.6215	0.2412	-0.7222	0.0117	2348925.7812	3509014445.4605	3509012096.5347	-0.1375	1.1476	-0.0345	0.7152	9.6017	1.7250	0.4122	-0.6830	0.2084	2348925.7812	-0.0204	0.2279	-0.4825	-0.7115	5.2374	-8.4649	-0.7240	1.8887	0.5704	2346250.0000	1.3447	-0.9989	0.6130	0.3474	9.4775	-1.9526	0.2987	-0.7644	-0.2442	0.0000	0.0000
2347343.7500	2.8827	0.6462	-0.9822	-1.2384	9.4141	2.4376	-0.4095	-0.6699	-0.5315	2348935.5469	0.4112	-0.6937	-0.0042	0.2662	9.8046	0.9513	-0.2654	-0.6582	-0.4946	2348935.5469	-0.0009	-0.0436	-0.1221	1.6910	5.1250	-7.9673	-0.5292	-0.1521	0.5022	2348417.9687	2.0205	-1.3745	0.2465	0.5779	9.5263	2.7759	0.2471	-0.7140	0.0398	2348935.5469	3509014445.4702	3509012096.5347	-0.4086	0.1569	0.2773	0.7152	9.6810	1.8822	0.4041	-0.6596	0.1789	2348935.5469	-0.0204	0.2279	-0.4825	-0.7115	5.2374	-8.4649	-0.7080	1.9286	0.5822	2346259.7656	1.3447	-0.9989	0.6130	0.5035	9.3979	-2.2629	0.3173	-0.7969	-0.2396	0.0000	0.0000
2347353.5156	2.8827	0.6462	-0.9822	-1.3181	9.3377	2.4392	-0.4171	-0.6777	-0.5640	2348945.3125	0.4112	-0.6937	-0.0042	0.2662	9.8031	0.7941	-0.2885	-0.6738	-0.4774	2348945.3125	0.0284	-0.0914	-0.0468	1.6910	5.2042	-7.8913	-0.5292	-0.1521	0.5022	2348427.7344	2.0664	0.0389	-0.3067	0.5006	9.4499	2.7775	0.2471	-0.7140	0.0398	2348945.3125	3509014445.4800	3509012096.5347	-0.4086	0.1569	0.2773	0.7152	9.6802	1.8032	0.4041	-0.6596	0.1789	2348945.3125	-0.0507	0.2720	-0.3919	-0.7903	5.3914	-8.4664	-0.7080	1.9286	0.5822	2346269.5312	1.3447	-0.9989	0.6130	0.3466	9.4767	-2.0304	0.2950	-0.8046	-0.2327	0.0000	0.0000
2347363.2812	2.5454	0.3581	-1.5276	-1.2384	9.4141	2.4376	-0.4095	-0.6447	-0.5293	2348955.0781	0.4112	-0.6937	-0.0042	0.3458	9.7250	0.7957	-0.2885	-0.6738	-0.4774	2348955.0781	0.0284	-0.0914	-0.0468	1.6910	5.1250	-7.9673	-0.5191	-0.1354	0.5132	2348437.5000	2.0664	0.0389	-0.3067	0.5787	9.5263	2.8531	0.2333	-0.7058	0.0258	2348955.0781	3509014445.4898	3509012096.5347	-0.4086	0.1569	0.2773	0.7152	9.6810	1.8822	0.4061	-0.6447	0.1853	2348955.0781	-0.0507	0.2720	-0.3919	-0.9471	5.1621	-8.3791	-0.7100	1.9055	0.5446	2346279.2969	1.0987	-1.0443	0.3501	0.4254	9.4759	-2.1081	0.3024	-0.8180	-0.2465	0.0000	0.0000
2347373.0469	2.5454	0.3581	-1.5276	-1.2376	9.4141	2.5128	-0.4133	-0.6524	-0.5618	2348964.8437	0.4958	-1.1349	0.2456	0.4254	9.8038	0.8727	-0.2808	-0.6445	-0.4710	2348964.8437	0.0284	-0.0914	-0.0468	1.7689	5.2019	-8.1225	-0.4990	-0.1042	0.4956	2348447.2656	2.0664	0.0389	-0.3067	0.5006	9.5263	2.7767	0.2333	-0.7243	0.0164	2348964.8437	3509014445.4995	3509012096.5347	-0.0724	-0.9316	0.3736	0.5587	9.6033	1.8830	0.4143	-0.6596	0.2126	2348964.8437	-0.0507	0.2720	-0.3919	-0.7895	5.3930	-8.3868	-0.7240	1.9328	0.5657	2346289.0625	1.0987	-1.0443	0.3501	0.4247	9.3987	-2.1851	0.2894	-0.7816	-0.2419	0.0000	0.0000
2347382.8125	2.5454	0.3581	-1.5276	-1.2376	9.4141	2.5128	-0.4076	-0.6466	-0.5293	2348974.6094	0.4958	-1.1349	0.2456	0.2662	9.7258	0.8743	-0.2885	-0.6504	-0.4989	2348974.6094	0.0336	0.1714	-0.1507	1.7689	5.1257	-7.8913	-0.5252	-0.1292	0.5110	2348457.0312	2.0664	0.0389	-0.3067	0.5006	9.4499	2.7775	0.2471	-0.7346	0.0422	2348974.6094	3509014445.5093	3509012096.5347	-0.0724	-0.9316	0.3736	0.5587	9.6810	1.8822	0.4143	-0.6745	0.1853	2348974.6094	-0.1426	0.4525	-0.2106	-0.8691	5.3145	-8.4633	-0.7160	1.9034	0.5681	2346298.8281	1.0987	-1.0443	0.3501	0.3450	9.5516	-2.1866	0.3173	-0.8046	-0.2488	0.0000	0.0000
2347392.5781	3.1087	1.0735	-1.4493	-1.3173	9.4905	2.5129	-0.4133	-0.6544	-0.5618	2348984.3750	0.4958	-1.1349	0.2456	0.3458	9.8031	0.7941	-0.2846	-0.6426	-0.4839	2348984.3750	0.0336	0.1714	-0.1507	1.8467	5.1250	-7.9689	-0.5252	-0.1292	0.5110	2348466.7969	1.7144	0.6320	-0.9511	0.3458	9.4499	2.7790	0.2471	-0.7346	0.0422	2348984.3750	3509014445.5191	3509012096.5347	-0.0724	-0.9316	0.3736	0.6369	9.6810	1.8822	0.4000	-0.6745	0.1853	2348984.3750	-0.1426	0.4525	-0.2106	-0.8675	5.3947	-8.3057	-0.7160	1.9034	0.5681	2346308.5937	1.7672	-0.8325	0.2627	0.4247	9.4752	-2.1859	0.2931	-0.8065	-0.2419	0.0000	0.0000
2347402.3437	3.1087	1.0735	-1.4493	-1.1587	9.4905	2.4361	-0.4133	-0.6718	-0.5315	2348994.1406	-0.0055	-1.8266	0.7370	0.3458	9.8023	0.7155	-0.2846	-0.6426	-0.4839	2348994.1406	0.0336	0.1714	-0.1507	1.7689	5.1250	-7.9681	-0.5352	-0.1479	0.5132	2348476.5625	1.7144	0.6320	-0.9511	0.5006	9.4499	2.7775	0.2451	-0.7037	0.0234	2348994.1406	3509014445.5288	3509012096.5347	0.2802	-2.0508	0.5921	0.6369	9.6802	1.8032	0.4000	-0.6234	0.1853	2348994.1406	-0.1426	0.4525	-0.2106	-0.8683	5.2391	-8.3822	-0.6980	1.9223	0.5352	2346318.3594	1.7672	-0.8325	0.2627	0.4254	9.6288	-2.1097	0.3024	-0.7989	-0.2442	0.0000	0.0000
2347412.1094	3.1087	1.0735	-1.4493	-1.3978	9.3377	2.4400	-0.4114	-0.6718	-0.5618	2349003.9062	-0.0055	-1.8266	0.7370	0.2662	9.8031	0.7941	-0.2788	-0.6465	-0.4796	2349003.9062	0.0336	0.1714	-0.1507	1.8467	5.0473	-7.8913	-0.5050	-0.1292	0.5022	2348486.3281	1.7144	0.6320	-0.9511	0.4232	9.5263	2.7775	0.2275	-0.6934	0.0187	2349003.9062	3509014445.5386	3509012096.5347	0.2802	-2.0508	0.5921	0.6369	9.7580	1.8024	0.3898	-0.6872	0.2189	2349003.9062	0.1665	0.3431	-0.5193	-0.8675	5.1637	-8.3011	-0.7320	1.9286	0.5751	2346328.1250	1.7672	-0.8325	0.2627	0.3458	9.5524	-2.1089	0.2894	-0.7739	-0.2396	0.0000	0.0000
2347421.8750	2.7257	1.7064	-1.6603	-1.2384	9.4141	2.4376	-0.4171	-0.6680	-0.5293	2349013.6719	-0.0055	-1.8266	0.7370	0.1866	9.7258	0.8743	-0.2712	-0.6387	-0.4968	2349013.6719	0.1078	0.1060	0.0152	1.6910	5.1242	-8.0441	-0.5050	-0.1292	0.5022	2348496.0937	1.2246	1.6863	-0.9417	0.5006	9.4499	2.7775	0.2275	-0.6934	0.0187	2349013.6719	3509014445.5484	3509012096.5347	0.2802	-2.0508	0.5921	0.5587	9.7580	1.8024	0.3898	-0.6872	0.2189	2349013.6719	0.1665	0.3431	-0.5193	-0.8683	5.3161	-8.3837	-0.7060	1.8971	0.5563	2346337.8906	1.4939	-1.3622	0.3191	0.3450	9.6281	-2.1874	0.2987	-0.7893	-0.2488	0.0000	0.0000
2347431.6406	2.7257	1.7064	-1.6603	-1.1594	9.3377	2.3624	-0.4210	-0.6757	-0.5575	2349023.4375	-0.1731	-1.7220	1.1810	0.3458	9.6454	0.6400	-0.2827	-0.6465	-0.4774	2349023.4375	0.1078	0.1060	0.0152	1.7689	5.1242	-8.0449	-0.5332	-0.1354	0.5088	2348505.8594	1.2246	1.6863	-0.9417	0.5013	9.5263	2.8539	0.2353	-0.7346	0.0445	2349023.4375	3509014445.5581	3509012096.5347	0.2802	-2.0508	0.5921	0.7152	9.7572	1.7234	0.4082	-0.6383	0.2000	2349023.4375	0.1665	0.3431	-0.5193	-0.7887	5.2407	-8.3042	-0.7060	1.8971	0.5563	2346347.6562	1.4939	-1.3622	0.3191	0.3458	9.5524	-2.1089	0.2801	-0.7931	-0.2373	0.0000	0.0000
2347441.4062	2.7257	1.7064	-1.6603	-1.3970	9.3377	2.5152	-0.4152	-0.6505	-0.5336	2349033.2031	-0.1731	-1.7220	1.1810	0.2662	9.7250	0.7957	-0.2827	-0.6465	-0.4774	2349033.2031	0.1078	0.1060	0.0152	1.7689	5.0458	-8.0441	-0.5352	-0.1250	0.5286	2348515.6250	1.2246	1.6863	-0.9417	0.5006	9.4499	2.7775	0.2490	-0.7222	0.0234	2349033.2031	3509014445.5679	3509012096.5347	0.1956	-0.7967	1.2786	0.7152	9.6810	1.8822	0.4122	-0.6255	0.1811	2349033.2031	0.1665	0.3431	-0.5193	-0.7895	5.2391	-8.3838	-0.7180	1.8992	0.5423	2346357.4219	1.4939	-1.3622	0.3191	0.4262	9.4767	-2.0304	0.3080	-0.7816	-0.2488	0.0000	0.0000
2347451.1719	2.7257	1.7064	-1.6603	-1.3963	9.4141	2.5896	-0.4305	-0.6563	-0.5640	2349042.9687	-0.1731	-1.7220	1.1810	0.1866	9.7258	0.8743	-0.2654	-0.6484	-0.4817	2349042.9687	0.1404	0.2271	0.0769	1.8467	5.1242	-8.0457	-0.5091	-0.1333	0.5022	2348525.3906	1.0868	2.7196	-1.5030	0.6561	9.4499	2.8531	0.2333	-0.7222	0.0141	2349042.9687	3509014445.5777	3509012096.5347	0.1956	-0.7967	1.2786	0.6369	9.6033	1.8830	0.4122	-0.6426	0.1811	2349042.9687	0.0273	0.4816	-0.3963	-0.8683	5.2391	-8.3822	-0.7260	1.8950	0.5681	2346367.1875	1.4939	-1.3622	0.3191	0.3443	9.4744	-2.2636	0.3043	-0.7739	-0.2419	0.0000	0.0000
2347460.9375	3.3663	2.4824	-2.3679	-1.3181	9.4141	2.4384	-0.4248	-0.6388	-0.5336	2349052.7344	-0.1731	-1.7220	1.1810	0.1070	9.7242	0.7171	-0.2673	-0.6426	-0.4882	2349052.7344	0.1404	0.2271	0.0769	1.7689	5.1242	-8.0449	-0.5091	-0.1333	0.5022	2348535.1562	1.0868	2.7196	-1.5030	0.6546	9.4499	2.6987	0.2333	-0.7222	0.0141	2349052.7344	3509014445.5874	3509012096.5347	0.1956	-0.7967	1.2786	0.7152	9.6041	1.9620	0.4102	-0.6426	0.2168	2349052.7344	0.0273	0.4816	-0.3963	-0.9463	5.2407	-8.3011	-0.7120	1.9286	0.5657	2346376.9531	1.9759	-1.5438	-0.1548	0.2670	9.4767	-2.0304	0.3006	-0.8142	-0.2535	0.0000	0.0000
2347470.7031	3.3663	2.4824	-2.3679	-1.3181	9.4905	2.4377	-0.4324	-0.6602	-0.5618	2349062.5000	-0.3520	-1.1852	0.9350	0.1070	9.7242	0.7171	-0.2885	-0.6523	-0.4753	2349062.5000	0.1404	0.2271	0.0769	1.7689	5.2034	-7.9689	-0.5292	-0.1437	0.5066	2348544.9219	1.0868	2.7196	-1.5030	0.6538	9.5263	2.6208	0.2392	-0.7305	0.0468	2349062.5000	3509014445.5972	3509012096.5347	-0.0970	-1.5427	0.9648	0.6369	9.6041	1.9620	0.4061	-0.6617	0.2084	2349062.5000	0.0273	0.4816	-0.3963	-0.7895	5.3160	-8.3853	-0.7120	1.9286	0.5657	2346386.7187	1.9759	-1.5438	-0.1548	0.2670	9.5532	-2.0311	0.3098	-0.7625	-0.2465	0.0000	0.0000
2347480.4687	3.3663	2.4824	-2.3679	-1.4775	9.4905	2.4393	-0.4229	-0.6485	-0.5466	2349072.2656	-0.3520	-1.1852	0.9350	0.1866	9.7250	0.7957	-0.2885	-0.6523	-0.4753	2349072.2656	0.0693	0.4446	-0.0267	1.8467	5.2042	-7.8928	-0.5352	-0.1604	0.5198	2348554.6875	1.1327	2.2785	-1.2355	0.6553	9.4499	2.7759	0.2235	-0.7490	0.0234	2349072.2656	3509014445.6070	3509012096.5347	-0.0970	-1.5427	0.9648	0.5587	9.6802	1.8032	0.3959	-0.6234	0.1853	2349072.2656	0.1365	0.3558	-0.3983	-0.7887	5.3176	-8.3058	-0.7200	1.9076	0.5352	2346396.4844	1.9759	-1.5438	-0.1548	0.2654	9.5516	-2.1866	0.3080	-0.7854	-0.2419	0.0000	0.0000
2347490.2344	3.1700	4.9545	-2.6359	-1.3985	9.4141	2.3640	-0.4210	-0.6854	-0.5640	2349082.0312	-0.3520	-1.1852	0.9350	0.1866	9.7250	0.7957	-0.2885	-0.6406	-0.4860	2349082.0312	0.0693	0.4446	-0.0267	1.6910	5.2042	-7.8913	-0.5352	-0.1604	0.5198	2348564.4531	1.1327	2.2785	-1.2355	0.7304	9.4499	2.5436	0.2451	-0.6975	0.0164	2349082.0312	3509014445.6167	3509012096.5347	-0.0970	-1.5427	0.9648	0.5587	9.6025	1.8040	0.3959	-0.6234	0.1853	2349082.0312	0.1365	0.3558	-0.3983	-0.7895	5.3160	-8.3853	-0.7180	1.9265	0.5728	2346406.2500	1.6092	-1.7254	-0.3220	0.5074	9.4783	-1.8749	0.3117	-0.7605	-0.2258	0.0000	0.0000
2347500.0000	3.1700	4.9545	-2.6359	-1.2384	9.4905	2.4369	-0.4133	-0.6757	-0.5336	2349091.7969	-0.1246	-0.8008	0.7357	0.1866	9.7242	0.7171	-0.2808	-0.6582	-0.4903	2349091.7969	0.0693	0.4446	-0.0267	1.6910	5.1258	-7.8905	-0.5131	-0.1562	0.5066	2348574.2187	1.1327	2.2785	-1.2355	0.6538	9.5263	2.6208	0.2451	-0.6975	0.0164	2349091.7969	3509014445.6265	3509012096.5347	-0.2363	-2.1220	0.7446	0.4022	9.6810	1.8822	0.4020	-0.6362	0.2168	2349091.7969	0.1365	0.3558	-0.3983	-0.8691	5.2375	-8.4617	-0.7100	1.9139	0.5657	2346416.0156	1.6092	-1.7254	-0.3220	0.2670	9.5532	-2.0311	0.3061	-0.7663	-0.2488	0.0000	0.0000
2347509.7656	3.1700	4.9545	-2.6359	-1.1594	9.2613	2.3632	-0.4305	-0.6913	-0.5575	2349101.5625	-0.1246	-0.8008	0.7357	0.2662	9.7258	0.8743	-0.2808	-0.6484	-0.4710	2349101.5625	-0.1220	-0.0592	-0.0450	1.7689	5.1250	-7.9681	-0.5070	-0.1417	0.4868	2348583.9844	1.1327	2.2785	-1.2355	0.8078	9.4499	2.5428	0.2412	-0.7675	0.0445	2349101.5625	3509014445.6363	3509012096.5347	-0.2363	-2.1220	0.7446	0.5587	9.7580	1.8024	0.4041	-0.6617	0.2105	2349101.5625	0.0580	0.3754	-0.4413	-0.9471	5.2391	-8.3806	-0.7100	1.9139	0.5657	2346425.7812	1.6092	-1.7254	-0.3220	0.2655	9.4752	-2.1859	0.3210	-0.7816	-0.2465	0.0000	0.0000
2347519.5312	2.9258	4.9723	-2.5285	-1.2384	9.4905	2.4369	-0.4114	-0.6816	-0.5488	2349111.3281	-0.1246	-0.8008	0.7357	0.3458	9.7258	0.8743	-0.2865	-0.6484	-0.4710	2349111.3281	-0.1220	-0.0592	-0.0450	1.7689	5.1250	-7.9681	-0.5332	-0.1542	0.5198	2348593.7500	1.0868	1.3218	-0.9523	0.6553	9.4499	2.7759	0.2333	-0.7449	0.0351	2349111.3281	3509014445.6460	3509012096.5347	-0.2363	-2.1220	0.7446	0.4022	9.8365	1.8806	0.4041	-0.6617	0.2105	2349111.3281	0.0580	0.3754	-0.4413	-0.9471	5.2391	-8.3806	-0.7040	1.9181	0.5376	2346435.5469	1.4115	-2.5276	-0.3141	0.4254	9.5524	-2.1089	0.3006	-0.8103	-0.2535	0.0000	0.0000
2347529.2969	2.9258	4.9723	-2.5285	-1.2369	9.4905	2.5873	-0.4210	-0.6680	-0.5597	2349121.0937	0.5598	-2.2336	0.8820	0.2662	9.7250	0.7957	-0.2673	-0.6250	-0.4796	2349121.0937	-0.1220	-0.0592	-0.0450	1.7689	5.1250	-7.9681	-0.5332	-0.1542	0.5198	2348603.5156	1.0868	1.3218	-0.9523	0.7319	9.3735	2.6987	0.2333	-0.7449	0.0351	2349121.0937	3509014445.6558	3509012096.5347	0.1576	-0.8116	0.5280	0.5587	9.7588	1.8814	0.3918	-0.6383	0.1853	2349121.0937	0.0580	0.3754	-0.4413	-0.7903	5.3145	-8.4649	-0.7300	1.9244	0.5869	2346445.3125	1.4115	-2.5276	-0.3141	0.2655	9.4752	-2.1859	0.2857	-0.7663	-0.2396	0.0000	0.0000
2347539.0625	2.9258	4.9723	-2.5285	-1.0783	9.4141	2.5112	-0.4133	-0.6563	-0.5423	2349130.8594	0.5598	-2.2336	0.8820	0.2662	9.7242	0.7171	-0.2769	-0.6445	-0.5011	2349130.8594	-0.1220	-0.0592	-0.0450	1.7689	5.0473	-7.8905	-0.5050	-0.1313	0.5066	2348613.2812	1.0868	1.3218	-0.9523	0.9618	9.4499	2.4640	0.2412	-0.7160	0.0141	2349130.8594	3509014445.6656	3509012096.5347	0.1576	-0.8116	0.5280	0.4804	9.6025	1.8040	0.3918	-0.6681	0.2021	2349130.8594	-0.0519	0.1997	-0.5113	-0.8675	5.2407	-8.3026	-0.6980	1.9013	0.5610	2346455.0781	1.4115	-2.5276	-0.3141	0.3474	9.4775	-1.9526	0.2839	-0.7854	-0.2581	0.0000	0.0000
2347548.8281	2.9153	4.8803	-2.2394	-1.2384	9.4141	2.4376	-0.4267	-0.6641	-0.5575	2349140.6250	0.5598	-2.2336	0.8820	0.3458	9.8023	0.7155	-0.2769	-0.6445	-0.5011	2349140.6250	0.1836	0.1218	-0.0462	1.6910	5.0473	-7.8897	-0.5151	-0.1521	0.4934	2348623.0469	1.4235	-0.6684	0.1673	0.8093	9.3735	2.6979	0.2451	-0.7181	0.0422	2349140.6250	3509014445.6753	3509012096.5347	0.1576	-0.8116	0.5280	0.5587	9.7580	1.8024	0.4041	-0.6830	0.2126	2349140.6250	-0.0519	0.1997	-0.5113	-0.8699	5.3129	-8.5428	-0.6980	1.9013	0.5610	2346464.8437	0.7688	-3.1482	-0.6975	0.4270	9.5539	-1.9534	0.3080	-0.7874	-0.2442	0.0000	0.0000
2347558.5937	2.9153	4.8803	-2.2394	-1.2384	9.4141	2.4376	-0.4000	-0.6350	-0.5510	2349150.3906	0.0925	-1.8840	1.1412	0.2662	9.8811	0.7926	-0.2712	-0.6562	-0.4731	2349150.3906	0.1836	0.1218	-0.0462	1.7689	5.1250	-7.9681	-0.5151	-0.1354	0.4934	2348632.8125	1.4235	-0.6684	0.1673	0.8085	9.6026	2.6184	0.2353	-0.7243	0.0328	2349150.3906	3509014445.6851	3509012096.5347	0.1576	-0.8116	0.5280	0.5587	9.6818	1.9612	0.4041	-0.6830	0.2126	2349150.3906	-0.0519	0.1997	-0.5113	-0.8683	5.2391	-8.3822	-0.7020	1.9307	0.5446	2346474.6094	0.7688	-3.1482	-0.6975	0.4247	9.5516	-2.1866	0.2876	-0.7969	-0.2465	0.0000	0.0000
2347568.3594	2.9153	4.8803	-2.2394	-1.2392	9.5668	2.3609	-0.4229	-0.6699	-0.5531	2349160.1562	0.0925	-1.8840	1.1412	0.4254	9.8031	0.7941	-0.2788	-0.6211	-0.4753	2349160.1562	0.1836	0.1218	-0.0462	1.6910	5.1242	-8.0441	-0.5473	-0.1354	0.5154	2348642.5781	1.4235	-0.6684	0.1673	0.7304	9.4499	2.5436	0.2353	-0.7243	0.0328	2349160.1562	3509014445.6949	3509012096.5347	0.0816	-0.6274	0.5451	0.7152	9.6818	1.9612	0.3980	-0.6489	0.1811	2349160.1562	-0.0519	0.1997	-0.5113	-0.8699	5.4669	-8.5459	-0.7320	1.9055	0.5845	2346484.3750	0.7688	-3.1482	-0.6975	0.2670	9.4767	-2.0304	0.2968	-0.7816	-0.2396	0.0000	0.0000
2347578.1250	2.9153	4.8803	-2.2394	-1.1594	9.4141	2.3616	-0.4076	-0.6408	-0.5380	2349169.9219	0.0925	-1.8840	1.1412	0.2662	9.8031	0.7941	-0.2923	-0.6914	-0.4925	2349169.9219	0.0640	0.1785	0.2444	1.7689	5.2042	-7.8921	-0.5252	-0.1583	0.5154	2348652.3437	1.4695	-1.0137	-0.0678	0.5772	9.4499	2.6995	0.2353	-0.7263	0.0141	2349169.9219	3509014445.7046	3509012096.5347	0.0816	-0.6274	0.5451	0.4804	9.7596	1.9604	0.3959	-0.6702	0.1979	2349169.9219	-0.0824	0.6696	-0.4400	-0.8699	5.3129	-8.5428	-0.7320	1.9055	0.5845	2346494.1406	0.7688	-3.1482	-0.6975	0.3466	9.5532	-2.0311	0.3098	-0.7931	-0.2488	0.0000	0.0000
2347587.8906	3.0957	4.5410	-2.2913	-1.0783	9.4141	2.5112	-0.4171	-0.6563	-0.5531	2349179.6875	0.0925	-1.8840	1.1412	0.1866	9.7235	0.6385	-0.2923	-0.6914	-0.4925	2349179.6875	0.0640	0.1785	0.2444	1.8467	5.1250	-7.9689	-0.5131	-0.1250	0.5022	2348662.1094	1.4695	-1.0137	-0.0678	0.7312	9.5263	2.6200	0.2451	-0.7346	0.0422	2349179.6875	3509014445.7144	3509012096.5347	0.0816	-0.6274	0.5451	0.4804	9.6025	1.8040	0.3959	-0.6702	0.1979	2349179.6875	-0.0824	0.6696	-0.4400	-0.9479	5.2375	-8.4602	-0.6980	1.9265	0.5563	2346503.9062	0.6593	-3.2995	-0.9962	0.4262	9.5532	-2.0311	0.3024	-0.7912	-0.2419	0.0000	0.0000
2347597.6562	3.0957	4.5410	-2.2913	-1.1617	9.4141	2.1360	-0.4095	-0.6427	-0.5488	2349189.4531	0.0257	-1.4024	1.1631	0.2662	9.7250	0.7957	-0.2846	-0.6445	-0.4731	2349189.4531	0.0640	0.1785	0.2444	1.6910	5.1242	-8.0441	-0.5131	-0.1250	0.5022	2348671.8750	1.4695	-1.0137	-0.0678	0.7312	9.5263	2.6200	0.2392	-0.7325	0.0281	2349189.4531	3509014445.7242	3509012096.5347	-0.3327	-0.8678	0.2517	0.4804	9.6025	1.8040	0.4122	-0.6894	0.2126	2349189.4531	-0.0824	0.6696	-0.4400	-0.8699	5.2359	-8.5413	-0.7180	1.9013	0.5446	2346513.6719	0.6593	-3.2995	-0.9962	0.2670	9.4767	-2.0304	0.2783	-0.7912	-0.2442	0.0000	0.0000
2347607.4219	3.0957	4.5410	-2.2913	-0.9189	9.4905	2.5089	-0.4152	-0.6485	-0.5423	2349199.2187	0.0257	-1.4024	1.1631	0.1866	9.7266	0.9529	-0.2885	-0.6602	-0.4817	2349199.2187	0.0746	-0.0449	-0.0924	1.6910	5.2026	-8.0449	-0.5412	-0.1292	0.5242	2348681.6406	1.8215	-1.4005	-0.3827	0.5772	9.5263	2.6987	0.2392	-0.7325	0.0281	2349199.2187	3509014445.7339	3509012096.5347	-0.3327	-0.8678	0.2517	0.5587	9.6810	1.8822	0.4082	-0.6596	0.1832	2349199.2187	-0.2854	0.5109	-0.4473	-0.9471	5.2391	-8.3806	-0.7200	1.9223	0.5775	2346523.4375	0.6593	-3.2995	-0.9962	0.3458	9.6288	-2.1097	0.3061	-0.7739	-0.2373	0.0000	0.0000
2347617.1875	3.0779	2.5160	-2.1701	-1.0001	9.4141	2.3600	-0.4171	-0.6932	-0.5466	2349208.9844	0.0257	-1.4024	1.1631	0.1866	9.7250	0.7957	-0.2808	-0.6641	-0.4925	2349208.9844	0.0746	-0.0449	-0.0924	1.7689	5.1242	-8.0449	-0.5312	-0.1229	0.5242	2348691.4062	1.8215	-1.4005	-0.3827	0.5772	9.4499	2.6995	0.2157	-0.7202	0.0187	2349208.9844	3509014445.7437	3509012096.5347	-0.3327	-0.8678	0.2517	0.4804	9.6810	1.8822	0.4020	-0.6574	0.1874	2349208.9844	-0.2854	0.5109	-0.4473	-0.7903	5.3145	-8.4649	-0.7200	1.9223	0.5775	2346533.2031	0.1135	-3.6022	-0.8228	0.3458	9.3995	-2.1074	0.2931	-0.7797	-0.2442	0.0000	0.0000
2347626.9531	3.0779	2.5160	-2.1701	-1.0790	9.4905	2.4353	-0.4210	-0.7029	-0.5618	2349218.7500	-0.0014	-0.2251	1.1908	0.1866	9.8031	0.7941	-0.2808	-0.6641	-0.4925	2349218.7500	0.0746	-0.0449	-0.0924	1.7689	5.0466	-7.9673	-0.5111	-0.1292	0.5022	2348701.1719	1.8215	-1.4005	-0.3827	0.5764	9.5263	2.6215	0.2373	-0.7613	0.0422	2349218.7500	3509014445.7534	3509012096.5347	-0.4207	-1.5853	0.5968	0.6369	9.6033	1.8830	0.4020	-0.6574	0.1874	2349218.7500	-0.2854	0.5109	-0.4473	-0.8675	5.3177	-8.3042	-0.7040	1.9307	0.5540	2346542.9687	0.1135	-3.6022	-0.8228	0.4254	9.4759	-2.1081	0.2968	-0.8046	-0.2442	0.0000	0.0000
2347636.7187	3.0779	2.5160	-2.1701	-1.0790	9.5668	2.4345	-0.4171	-0.6932	-0.5662	2349228.5156	-0.0014	-0.2251	1.1908	0.2662	9.7250	0.7957	-0.2692	-0.6289	-0.4688	2349228.5156	0.0746	-0.0449	-0.0924	1.7689	5.1250	-7.9681	-0.5111	-0.1292	0.5022	2348710.9375	1.8215	-1.4005	-0.3827	0.5779	9.4499	2.7767	0.2373	-0.7613	0.0422	2349228.5156	3509014445.7632	3509012096.5347	-0.4207	-1.5853	0.5968	0.7152	9.6033	1.8830	0.3959	-0.7064	0.2084	2349228.5156	0.2913	0.1407	-0.5210	-0.8683	5.3931	-8.3853	-0.7040	1.9118	0.5352	2346552.7344	0.1135	-3.6022	-0.8228	0.5058	9.4003	-2.0296	0.2801	-0.7854	-0.2535	0.0000	0.0000
2347646.4844	3.6107	1.0839	-1.7709	-1.0805	9.4905	2.2849	-0.4190	-0.6990	-0.5531	2349238.2812	-0.0014	-0.2251	1.1908	0.2662	9.7250	0.7957	-0.2788	-0.6230	-0.4753	2349238.2812	-0.1196	0.0613	0.0626	1.9246	5.2034	-7.9704	-0.5392	-0.1562	0.5110	2348720.7031	1.4388	-0.3300	-0.3643	0.5779	9.4499	2.7767	0.2451	-0.7325	0.0258	2349238.2812	3509014445.7730	3509012096.5347	-0.4207	-1.5853	0.5968	0.4804	9.6802	1.8032	0.4122	-0.6426	0.1895	2349238.2812	0.2913	0.1407	-0.5210	-0.9463	5.2407	-8.3011	-0.7320	1.9013	0.5892	2346562.5000	-0.6041	-4.5255	-1.0821	0.4285	9.5555	-1.7979	0.3043	-0.8103	-0.2512	0.0000	0.0000
2347656.2500	3.6107	1.0839	-1.7709	-1.0001	9.4141	2.3600	-0.4038	-0.6466	-0.5466	2349248.0469	-0.0640	-1.5740	1.3604	0.1866	9.7258	0.8743	-0.2750	-0.6738	-0.4925	2349248.0469	-0.1196	0.0613	0.0626	1.7689	5.2049	-7.8152	-0.5372	-0.1479	0.5220	2348730.4687	1.4388	-0.3300	-0.3643	0.4998	9.5263	2.6995	0.2294	-0.7407	0.0211	2349248.0469	3509014445.7827	3509012096.5347	-0.0865	-0.8856	0.4966	0.4804	9.6017	1.7250	0.4122	-0.6426	0.1895	2349248.0469	0.2913	0.1407	-0.5210	-0.8691	5.2375	-8.4617	-0.7320	1.9013	0.5892	2346572.2656	-0.6041	-4.5255	-1.0821	0.3458	9.7053	-2.1104	0.2931	-0.7625	-0.2488	0.0000	0.0000
2347666.0156	3.6107	1.0839	-1.7709	-1.0790	9.5668	2.4345	-0.4095	-0.6485	-0.5488	2349257.8125	-0.0640	-1.5740	1.3604	0.1866	9.7250	0.7957	-0.2750	-0.6738	-0.4925	2349257.8125	-0.1196	0.0613	0.0626	1.6910	5.1258	-7.8905	-0.5372	-0.1479	0.5220	2348740.2344	1.4388	-0.3300	-0.3643	0.4224	9.4499	2.7010	0.2373	-0.7140	0.0375	2349257.8125	3509014445.7925	3509012096.5347	-0.0865	-0.8856	0.4966	0.6369	9.6017	1.7250	0.3959	-0.6617	0.1747	2349257.8125	0.2913	0.1407	-0.5210	-0.7887	5.3176	-8.3058	-0.7020	1.8908	0.5446	2346582.0312	-0.6041	-4.5255	-1.0821	0.1874	9.5532	-2.0311	0.3210	-0.7739	-0.2488	0.0000	0.0000
2347675.7812	3.2893	1.2712	-1.7583	-1.1580	9.4905	2.5113	-0.4152	-0.6427	-0.5597	2349267.5781	-0.0640	-1.5740	1.3604	0.1866	9.8819	0.8712	-0.2788	-0.6250	-0.4710	2349267.5781	0.1442	0.4141	-0.0733	1.7689	5.0473	-7.8905	-0.5111	-0.1479	0.4978	2348750.0000	1.4235	0.5503	-0.6445	0.5021	9.4499	2.9318	0.2373	-0.7140	0.0375	2349267.5781	3509014445.8023	3509012096.5347	-0.0865	-0.8856	0.4966	0.6369	9.6025	1.8040	0.4184	-0.6447	0.2168	2349267.5781	-0.1295	0.2014	-0.4639	-0.7903	5.3145	-8.4649	-0.7100	1.9328	0.5469	2346591.7969	-0.2051	-3.8747	-0.7343	0.2662	9.3995	-2.1074	0.2950	-0.7797	-0.2512	0.0000	0.0000
2347685.5469	3.2893	1.2712	-1.7583	-1.1580	9.5668	2.5105	-0.4152	-0.6408	-0.5423	2349277.3437	-0.3384	-0.9084	1.0128	0.1866	9.7266	0.9529	-0.2808	-0.6406	-0.4774	2349277.3437	0.1442	0.4141	-0.0733	1.8467	5.0473	-7.8913	-0.5231	-0.1500	0.5044	2348759.7656	1.4235	0.5503	-0.6445	0.4232	9.5263	2.7775	0.2431	-0.7428	0.0375	2349277.3437	3509014445.8120	3509012096.5347	-0.4228	0.2182	0.3851	0.7152	9.7588	1.8814	0.3918	-0.6787	0.1895	2349277.3437	-0.1295	0.2014	-0.4639	-0.8699	5.2359	-8.5413	-0.7360	1.8908	0.5845	2346601.5625	-0.2051	-3.8747	-0.7343	0.2678	9.4775	-1.9526	0.3061	-0.7720	-0.2396	0.0000	0.0000
2347695.3125	3.2893	1.2712	-1.7583	-0.9986	9.4905	2.5097	-0.4114	-0.6583	-0.5705	2349287.1094	-0.3384	-0.9084	1.0128	0.1070	9.7258	0.8743	-0.2808	-0.6406	-0.4774	2349287.1094	0.1442	0.4141	-0.0733	1.7689	5.1257	-7.8913	-0.5453	-0.1979	0.5154	2348769.5312	1.4235	0.5503	-0.6445	0.4998	9.3735	2.7010	0.2490	-0.7119	0.0187	2349287.1094	3509014445.8218	3509012096.5347	-0.4228	0.2182	0.3851	0.5587	9.6802	1.8032	0.3918	-0.6787	0.1895	2349287.1094	-0.1295	0.2014	-0.4639	-0.8699	5.2359	-8.5413	-0.7360	1.8908	0.5845	2346611.3281	-0.2051	-3.8747	-0.7343	0.2662	9.3995	-2.1074	0.2783	-0.7835	-0.2488	0.0000	0.0000
2347705.0781	3.2893	1.2712	-1.7583	-1.0790	9.4141	2.4360	-0.3981	-0.6718	-0.5531	2349296.8750	-0.3384	-0.9084	1.0128	0.1070	9.8038	0.8727	-0.2654	-0.6562	-0.4989	2349296.8750	0.1673	0.0609	-0.0619	1.8467	5.1257	-7.8921	-0.5453	-0.1979	0.5154	2348779.2969	1.2552	2.1297	-1.3664	0.5772	9.3735	2.7003	0.2373	-0.7551	0.0445	2349296.8750	3509014445.8316	3509012096.5347	-0.4228	0.2182	0.3851	0.6369	9.6810	1.8822	0.4061	-0.6213	0.1811	2349296.8750	-0.1442	0.0321	-0.3717	-0.8675	5.2407	-8.3026	-0.6960	1.9223	0.5423	2346621.0937	-0.7175	-3.9504	-0.2592	0.2662	9.4759	-2.1081	0.2913	-0.7874	-0.2581	0.0000	0.0000
2347714.8437	3.4745	2.4047	-2.3063	-1.1595	9.4905	2.3609	-0.4038	-0.6680	-0.5705	2349306.6406	-0.3384	-0.9084	1.0128	0.1866	9.8038	0.8727	-0.2750	-0.6289	-0.4667	2349306.6406	0.1673	0.0609	-0.0619	1.7689	5.0458	-8.0441	-0.5030	-0.1250	0.4956	2348789.0625	1.2552	2.1297	-1.3664	0.6553	9.4499	2.7759	0.2373	-0.7551	0.0445	2349306.6406	3509014445.8413	3509012096.5347	-0.4228	0.2182	0.3851	0.5587	9.6025	1.8040	0.4143	-0.6383	0.2211	2349306.6406	-0.1442	0.0321	-0.3717	-0.8691	5.2375	-8.4617	-0.7240	1.9223	0.5446	2346630.8594	-0.7175	-3.9504	-0.2592	0.3458	9.4759	-2.1081	0.2931	-0.7893	-0.2488	0.0000	0.0000
2347724.6094	3.4745	2.4047	-2.3063	-1.0797	9.3377	2.3616	-0.4038	-0.6680	-0.5466	2349316.4062	-0.3247	0.5980	0.7859	0.1866	9.7242	0.7171	-0.2750	-0.6445	-0.4796	2349316.4062	0.1673	0.0609	-0.0619	1.6910	5.0473	-7.8897	-0.5211	-0.1625	0.4934	2348798.8281	1.2552	2.1297	-1.3664	0.4998	9.5263	2.6995	0.2412	-0.7243	0.0445	2349316.4062	3509014445.8511	3509012096.5347	0.2303	-0.5678	0.1781	0.5587	9.6802	1.8032	0.4143	-0.6383	0.2211	2349316.4062	-0.1442	0.0321	-0.3717	-0.9455	5.2423	-8.2215	-0.7180	1.9076	0.5775	2346640.6250	-0.7175	-3.9504	-0.2592	0.3474	9.6304	-1.9541	0.3024	-0.8008	-0.2581	0.0000	0.0000
2347734.3750	3.4745	2.4047	-2.3063	-1.1579	9.4141	2.5120	-0.3962	-0.6718	-0.5683	2349326.1719	-0.3247	0.5980	0.7859	0.2662	9.8023	0.7155	-0.2750	-0.6445	-0.4796	2349326.1719	-0.5773	-0.1793	0.0496	1.6131	5.2026	-8.0441	-0.5211	-0.1625	0.4934	2348808.5937	1.1327	2.6991	-2.4368	0.6545	9.5263	2.6980	0.2373	-0.7346	0.0164	2349326.1719	3509014445.8609	3509012096.5347	0.2303	-0.5678	0.1781	0.6369	9.7588	1.8814	0.4143	-0.6426	0.2168	2349326.1719	-0.1604	0.1409	-0.4324	-0.8675	5.2407	-8.3026	-0.7180	1.9076	0.5775	2346650.3906	-0.7175	-3.9504	-0.2592	0.1882	9.5539	-1.9534	0.2931	-0.7682	-0.2512	0.0000	0.0000
2347744.1406	3.5722	0.2404	-1.7302	-1.2376	9.4905	2.5121	-0.4171	-0.6583	-0.5531	2349335.9375	-0.3247	0.5980	0.7859	0.2662	9.8023	0.7155	-0.2731	-0.6426	-0.4946	2349335.9375	-0.5773	-0.1793	0.0496	1.8467	5.0458	-8.0449	-0.5352	-0.1313	0.5198	2348818.3594	1.1327	2.6991	-2.4368	0.6530	9.4499	2.5443	0.2373	-0.7346	0.0164	2349335.9375	3509014445.8706	3509012096.5347	0.2303	-0.5678	0.1781	0.4804	9.6810	1.8822	0.3918	-0.6553	0.1789	2349335.9375	-0.1604	0.1409	-0.4324	-0.7887	5.2407	-8.3042	-0.7100	1.9034	0.5399	2346660.1562	-0.3707	-2.2855	-0.5610	0.3474	9.5539	-1.9534	0.3080	-0.7931	-0.2419	0.0000	0.0000
2347753.9062	3.5722	0.2404	-1.7302	-1.2384	9.4905	2.4369	-0.4171	-0.6447	-0.5683	2349345.7031	-0.2831	-0.4713	0.7588	0.1866	9.8038	0.8727	-0.2865	-0.6289	-0.4667	2349345.7031	-0.5773	-0.1793	0.0496	1.7689	5.1257	-7.8913	-0.5091	-0.1667	0.5154	2348828.1250	1.1327	2.6991	-2.4368	0.5764	9.5263	2.6215	0.2471	-0.7202	0.0398	2349345.7031	3509014445.8804	3509012096.5347	0.2297	-0.5984	0.1165	0.4804	9.7588	1.8814	0.3918	-0.6638	0.2105	2349345.7031	-0.1604	0.1409	-0.4324	-0.8691	5.2375	-8.4617	-0.7120	1.8992	0.5493	2346669.9219	-0.3707	-2.2855	-0.5610	0.2670	9.5532	-2.0311	0.2839	-0.8008	-0.2488	0.0000	0.0000
2347763.6719	3.5722	0.2404	-1.7302	-1.1587	9.4141	2.4368	-0.4095	-0.6544	-0.5510	2349355.4687	-0.2831	-0.4713	0.7588	0.0274	9.6454	0.6400	-0.2673	-0.6602	-0.4817	2349355.4687	-0.5773	-0.1793	0.0496	1.8467	5.1234	-8.1225	-0.5111	-0.1313	0.5000	2348837.8906	1.1327	2.6991	-2.4368	0.6553	9.4499	2.7759	0.2471	-0.7140	0.0422	2349355.4687	3509014445.8902	3509012096.5347	0.2297	-0.5984	0.1165	0.6369	9.6025	1.8040	0.3918	-0.6638	0.2105	2349355.4687	-0.1125	-0.0009	-0.3272	-1.0259	5.2392	-8.3790	-0.7220	1.9223	0.5869	2346679.6875	-0.3707	-2.2855	-0.5610	0.2662	9.4759	-2.1081	0.2987	-0.8008	-0.2465	0.0000	0.0000
2347773.4375	3.5179	-0.0505	-1.9921	-1.2376	9.4141	2.5128	-0.4133	-0.6602	-0.5770	2349365.2344	-0.2831	-0.4713	0.7588	0.1866	9.8046	0.9513	-0.2673	-0.6602	-0.4817	2349365.2344	-0.0008	-0.0411	-0.2437	1.7689	5.2042	-7.8921	-0.5111	-0.1313	0.5000	2348847.6562	0.8878	1.5906	-2.2959	0.5764	9.4499	2.6223	0.2294	-0.7202	0.0117	2349365.2344	3509014445.8999	3509012096.5347	0.2297	-0.5984	0.1165	0.4804	9.6818	1.9612	0.3857	-0.6702	0.2168	2349365.2344	-0.1125	-0.0009	-0.3272	-0.8683	5.2391	-8.3822	-0.7220	1.9223	0.5869	2346689.4531	-0.5199	-1.3319	-0.2671	0.1874	9.5532	-2.0311	0.2876	-0.7682	-0.2419	0.0000	0.0000
2347783.2031	3.5179	-0.0505	-1.9921	-1.0001	9.4141	2.3600	-0.4057	-0.6757	-0.5488	2349375.0000	-0.0884	0.2358	0.7299	0.1070	9.8031	0.7941	-0.2769	-0.6426	-0.4903	2349375.0000	-0.0008	-0.0411	-0.2437	1.8467	5.1250	-7.9689	-0.5433	-0.1313	0.5286	2348857.4219	0.8878	1.5906	-2.2959	0.7327	9.3735	2.7759	0.2294	-0.7202	0.0117	2349375.0000	3509014445.9097	3509012096.5347	0.0006	-0.4738	0.0565	0.7152	9.6810	1.8822	0.3857	-0.6511	0.1789	2349375.0000	-0.1125	-0.0009	-0.3272	-1.0251	5.3177	-8.3010	-0.7020	1.9013	0.5352	2346699.2187	-0.5199	-1.3319	-0.2671	0.3482	9.4783	-1.8749	0.3117	-0.8123	-0.2512	0.0000	0.0000
2347792.9687	3.5179	-0.0505	-1.9921	-1.0783	9.4905	2.5105	-0.3981	-0.6680	-0.5705	2349384.7656	-0.0884	0.2358	0.7299	0.2662	9.7250	0.7957	-0.2865	-0.6406	-0.4731	2349384.7656	-0.0008	-0.0411	-0.2437	1.7689	5.2019	-8.1225	-0.5151	-0.1187	0.5132	2348867.1875	0.8878	1.5906	-2.2959	0.7319	9.4499	2.6979	0.2353	-0.7428	0.0328	2349384.7656	3509014445.9195	3509012096.5347	0.0006	-0.4738	0.0565	0.7152	9.7588	1.8814	0.3857	-0.6511	0.1789	2349384.7656	-0.1125	-0.0009	-0.3272	-0.9471	5.3161	-8.3822	-0.7340	1.8929	0.5540	2346708.9844	-0.5199	-1.3319	-0.2671	0.2662	9.4759	-2.1081	0.2801	-0.8008	-0.2465	0.0000	0.0000
2347802.7344	3.4402	1.5765	-2.0702	-1.3181	9.4905	2.4377	-0.4038	-0.6621	-0.5466	2349394.5312	-0.0884	0.2358	0.7299	0.2662	9.8031	0.7941	-0.2692	-0.6426	-0.4753	2349394.5312	0.0665	0.3039	0.1088	1.6131	5.1242	-8.0434	-0.5151	-0.1187	0.5132	2348876.9531	1.4542	2.0173	-2.0356	0.6545	9.5263	2.6980	0.2471	-0.7181	0.0375	2349394.5312	3509014445.9292	3509012096.5347	0.0006	-0.4738	0.0565	0.5587	9.6818	1.9612	0.3959	-0.6468	0.2021	2349394.5312	0.0735	0.2689	-0.4557	-0.8691	5.1605	-8.4602	-0.7340	1.8929	0.5540	2346718.7500	-0.8343	-0.8930	0.2304	0.2662	9.4759	-2.1081	0.3006	-0.7835	-0.2512	0.0000	0.0000
2347812.5000	3.4402	1.5765	-2.0702	-1.2369	9.4905	2.5873	-0.4019	-0.6777	-0.5662	2349404.2969	-0.0197	-0.4165	0.7213	0.1866	9.7242	0.7171	-0.2692	-0.6426	-0.4753	2349404.2969	0.0665	0.3039	0.1088	1.7689	5.0458	-8.0441	-0.5151	-0.1542	0.5000	2348886.7187	1.4542	2.0173	-2.0356	0.5772	9.5263	2.6987	0.2373	-0.7202	0.0187	2349404.2969	3509014445.9390	3509012096.5347	-0.1535	-0.6251	-0.1135	0.5587	9.6810	1.8822	0.3959	-0.6957	0.2147	2349404.2969	0.0735	0.2689	-0.4557	-0.8691	5.1605	-8.4602	-0.7300	1.8992	0.5892	2346728.5156	-0.8343	-0.8930	0.2304	0.3474	9.4010	-1.9518	0.2839	-0.7854	-0.2419	0.0000	0.0000
2347822.2656	3.4402	1.5765	-2.0702	-1.1587	9.3377	2.4376	-0.3905	-0.6660	-0.5445	2349414.0625	-0.0197	-0.4165	0.7213	0.1070	9.8023	0.7155	-0.2692	-0.6465	-0.4882	2349414.0625	0.0665	0.3039	0.1088	1.6910	5.1227	-8.1978	-0.5453	-0.1625	0.5176	2348896.4844	1.4542	2.0173	-2.0356	0.5779	9.5263	2.7759	0.2373	-0.7202	0.0187	2349414.0625	3509014445.9488	3509012096.5347	-0.1535	-0.6251	-0.1135	0.5587	9.6810	1.8822	0.3939	-0.6553	0.1811	2349414.0625	0.0735	0.2689	-0.4557	-0.8683	5.2391	-8.3822	-0.7120	1.9181	0.5399	2346738.2812	-0.8343	-0.8930	0.2304	0.3466	9.4767	-2.0304	0.2968	-0.8142	-0.2512	0.0000	0.0000
2347832.0312	3.4402	1.5765	-2.0702	-1.2391	9.3377	2.3632	-0.4076	-0.6621	-0.5727	2349423.8281	-0.0197	-0.4165	0.7213	0.1866	9.8795	0.6353	-0.2923	-0.6484	-0.4688	2349423.8281	0.4301	0.3669	-0.1527	1.6910	5.0450	-8.1202	-0.5231	-0.1417	0.5110	2348906.2500	1.7297	1.6227	-1.6441	0.7327	9.3735	2.7759	0.2275	-0.7325	0.0445	2349423.8281	3509014445.9585	3509012096.5347	-0.1535	-0.6251	-0.1135	0.4022	9.6041	1.9620	0.3939	-0.6553	0.1811	2349423.8281	0.0760	0.1852	-0.1995	-0.9471	5.3161	-8.3822	-0.7280	1.9286	0.5610	2346748.0469	-1.3341	-0.4995	0.4474	0.1866	9.4759	-2.1081	0.2783	-0.7893	-0.2442	0.0000	0.0000
2347841.7969	3.2599	0.1055	-1.8737	-1.3188	9.3377	2.3640	-0.4019	-0.6485	-0.5510	2349433.5937	-0.0197	-0.4165	0.7213	0.1070	9.9607	0.9482	-0.2923	-0.6484	-0.4688	2349433.5937	0.4301	0.3669	-0.1527	1.8467	5.2019	-8.1233	-0.5231	-0.1417	0.5110	2348916.0156	1.7297	1.6227	-1.6441	0.6569	9.5263	2.9295	0.2490	-0.7510	0.0375	2349433.5937	3509014445.9683	3509012096.5347	-0.1707	-0.3345	-0.3097	0.5587	9.6810	1.8822	0.3918	-0.6553	0.1958	2349433.5937	0.0760	0.1852	-0.1995	-0.7895	5.2391	-8.3838	-0.7280	1.9286	0.5610	2346757.8125	-1.3341	-0.4995	0.4474	0.4247	9.5516	-2.1866	0.3006	-0.7663	-0.2419	0.0000	0.0000
2347851.5625	3.2599	0.1055	-1.8737	-1.2384	9.4905	2.4369	-0.4190	-0.6583	-0.5683	2349443.3594	-0.0638	-0.7543	0.6437	0.1070	9.8031	0.7941	-0.2635	-0.6406	-0.4839	2349443.3594	0.4301	0.3669	-0.1527	1.7689	5.2042	-7.8921	-0.5272	-0.1521	0.4890	2348925.7812	1.7297	1.6227	-1.6441	0.8093	9.5263	2.6964	0.2490	-0.7510	0.0375	2349443.3594	3509014445.9781	3509012096.5347	-0.1707	-0.3345	-0.3097	0.6369	9.6818	1.9612	0.4020	-0.7021	0.2211	2349443.3594	0.0760	0.1852	-0.1995	-0.8699	5.3129	-8.5428	-0.7400	1.9097	0.5751	2346767.5781	-1.3341	-0.4995	0.4474	0.2670	9.5532	-2.0311	0.2968	-0.7605	-0.2442	0.0000	0.0000
2347861.3281	3.2599	0.1055	-1.8737	-1.0790	9.5668	2.4345	-0.4019	-0.6505	-0.5575	2349453.1250	-0.0638	-0.7543	0.6437	0.1866	9.7266	0.9529	-0.2846	-0.6543	-0.4946	2349453.1250	0.1654	-0.0320	-0.0172	1.7689	5.1265	-7.8145	-0.5312	-0.1458	0.5110	2348935.5469	1.6685	-0.4904	-0.7459	0.7327	9.5263	2.7744	0.2373	-0.7016	0.0211	2349453.1250	3509014445.9878	3509012096.5347	-0.1707	-0.3345	-0.3097	0.4804	9.6795	1.7242	0.4020	-0.7021	0.2211	2349453.1250	0.3069	0.3376	-0.5235	-0.9479	5.2375	-8.4602	-0.7100	1.9202	0.5423	2346777.3437	-1.3341	-0.4995	0.4474	0.2662	9.5524	-2.1089	0.2987	-0.7739	-0.2512	0.0000	0.0000
2347871.0937	3.5603	-0.8334	-1.0199	-1.2384	9.3377	2.4384	-0.4038	-0.6874	-0.5683	2349462.8906	-0.0638	-0.7543	0.6437	0.0274	9.8038	0.8727	-0.2788	-0.6660	-0.4753	2349462.8906	0.1654	-0.0320	-0.0172	1.7689	5.1234	-8.1217	-0.5312	-0.1458	0.5110	2348945.3125	1.6685	-0.4904	-0.7459	0.7319	9.6026	2.6964	0.2314	-0.7366	0.0398	2349462.8906	3509014445.9976	3509012096.5347	-0.1707	-0.3345	-0.3097	0.5587	9.7588	1.8814	0.4041	-0.6702	0.1811	2349462.8906	0.3069	0.3376	-0.5235	-0.7115	5.2374	-8.4649	-0.7180	1.9055	0.5563	2346787.1094	-1.4851	-0.2724	0.5595	0.2655	9.4752	-2.1859	0.3043	-0.7625	-0.2442	0.0000	0.0000
2347880.8594	3.5603	-0.8334	-1.0199	-1.2391	9.4141	2.3624	-0.4057	-0.6854	-0.5488	2349472.6562	-0.5730	1.5155	0.1985	0.1070	9.8827	0.9498	-0.2788	-0.6660	-0.4753	2349472.6562	0.1654	-0.0320	-0.0172	1.7689	5.1257	-7.8913	-0.5352	-0.1333	0.5132	2348955.0781	1.6685	-0.4904	-0.7459	0.7327	9.4499	2.7751	0.2412	-0.7675	0.0422	2349472.6562	3509014446.0074	3509012096.5347	0.1939	2.1378	-0.4228	0.7152	9.6033	1.8830	0.4020	-0.6489	0.1832	2349472.6562	0.3069	0.3376	-0.5235	-0.7887	5.2407	-8.3042	-0.7180	1.9055	0.5563	2346796.8750	-1.4851	-0.2724	0.5595	0.2670	9.6296	-2.0319	0.2950	-0.7969	-0.2442	0.0000	0.0000
2347890.6250	3.5603	-0.8334	-1.0199	-1.1602	9.4141	2.2864	-0.4133	-0.6816	-0.5705	2349482.4219	-0.5730	1.5155	0.1985	0.1070	9.8031	0.7941	-0.2673	-0.6250	-0.4839	2349482.4219	0.1654	-0.0320	-0.0172	1.8467	5.0450	-8.1217	-0.5050	-0.1125	0.4912	2348964.8437	1.6685	-0.4904	-0.7459	0.7304	9.4499	2.5436	0.2412	-0.7675	0.0422	2349482.4219	3509014446.0171	3509012096.5347	0.1939	2.1378	-0.4228	0.6369	9.6802	1.8032	0.4122	-0.6851	0.2168	2349482.4219	-0.0189	0.2082	-0.3321	-0.9479	5.2375	-8.4602	-0.7140	1.9307	0.5869	2346806.6406	-1.4851	-0.2724	0.5595	0.2670	9.4767	-2.0304	0.2913	-0.7644	-0.2350	0.0000	0.0000
2347900.3906	3.2582	-1.7509	-1.0346	-1.0798	9.4141	2.3608	-0.4019	-0.6699	-0.5445	2349492.1875	-0.5730	1.5155	0.1985	0.2662	9.6454	0.6400	-0.2769	-0.6621	-0.4903	2349492.1875	-0.1011	0.2283	0.1401	1.7689	5.1250	-7.9681	-0.5292	-0.1229	0.5088	2348974.6094	1.7450	-2.0995	-0.1715	0.4998	9.4499	2.7003	0.2353	-0.7325	0.0187	2349492.1875	3509014446.0269	3509012096.5347	0.1939	2.1378	-0.4228	0.6369	9.6802	1.8032	0.4122	-0.6851	0.2168	2349492.1875	-0.0189	0.2082	-0.3321	-0.8683	5.3161	-8.3837	-0.7000	1.8992	0.5329	2346816.4062	-0.8763	0.6054	0.5957	0.1882	9.4010	-1.9518	0.3043	-0.7720	-0.2581	0.0000	0.0000
2347910.1562	3.2582	-1.7509	-1.0346	-1.2384	9.4905	2.4369	-0.4038	-0.6466	-0.5662	2349501.9531	-0.1453	1.9583	-0.1271	0.2662	9.6454	0.6400	-0.2731	-0.6523	-0.4710	2349501.9531	-0.1011	0.2283	0.1401	1.6910	5.1250	-7.9673	-0.5292	-0.1229	0.5088	2348984.3750	1.7450	-2.0995	-0.1715	0.8859	9.6026	2.6177	0.2294	-0.7428	0.0304	2349501.9531	3509014446.0367	3509012096.5347	-0.0814	1.4222	-0.5218	0.6369	9.6795	1.7242	0.3878	-0.6681	0.1853	2349501.9531	-0.0189	0.2082	-0.3321	-0.9471	5.3161	-8.3822	-0.7380	1.9181	0.5657	2346826.1719	-0.8763	0.6054	0.5957	0.1866	9.4759	-2.1081	0.3061	-0.7893	-0.2488	0.0000	0.0000
2347919.9219	3.2582	-1.7509	-1.0346	-1.1587	9.4141	2.4368	-0.4057	-0.6369	-0.5423	2349511.7187	-0.1453	1.9583	-0.1271	0.1866	9.7219	0.4812	-0.2731	-0.6523	-0.4710	2349511.7187	-0.1011	0.2283	0.1401	1.8467	5.1242	-8.0457	-0.5292	-0.1208	0.5154	2348994.1406	1.7450	-2.0995	-0.1715	0.6538	9.4499	2.6215	0.2235	-0.7490	0.0468	2349511.7187	3509014446.0464	3509012096.5347	-0.0814	1.4222	-0.5218	0.6369	9.6025	1.8040	0.4000	-0.6362	0.1811	2349511.7187	-0.0189	0.2082	-0.3321	-0.9471	5.2391	-8.3806	-0.7380	1.9181	0.5657	2346835.9375	-0.8763	0.6054	0.5957	0.2662	9.3995	-2.1074	0.2894	-0.8084	-0.2396	0.0000	0.0000
2347929.6875	3.0999	-0.0157	-1.3412	-1.1579	9.4141	2.5120	-0.4210	-0.6466	-0.5597	2349521.4844	-0.1453	1.9583	-0.1271	0.2662	9.5682	0.7202	-0.2712	-0.6562	-0.4860	2349521.4844	0.0886	-0.1003	-0.3972	1.8467	5.1242	-8.0457	-0.5030	-0.1083	0.5022	2349003.9062	2.3879	-3.0961	0.2531	0.6538	9.3735	2.6223	0.2235	-0.7490	0.0468	2349521.4844	3509014446.0562	3509012096.5347	-0.0814	1.4222	-0.5218	0.5587	9.6033	1.8830	0.4000	-0.6362	0.1811	2349521.4844	-0.1276	0.3170	-0.2698	-0.8683	5.2391	-8.3822	-0.7280	1.8676	0.5892	2346845.7031	-0.6472	0.3481	0.6927	0.2670	9.4767	-2.0304	0.3006	-0.7950	-0.2419	0.0000	0.0000
2347939.4531	3.0999	-0.0157	-1.3412	-1.2377	9.5668	2.5113	-0.4076	-0.6369	-0.5488	2349531.2500	-0.1453	1.9583	-0.1271	0.2662	9.7235	0.6385	-0.2904	-0.6641	-0.4925	2349531.2500	0.0886	-0.1003	-0.3972	1.7689	5.1257	-7.8913	-0.5030	-0.1083	0.5022	2349013.6719	2.3879	-3.0961	0.2531	0.6553	9.5263	2.7751	0.2255	-0.7366	0.0164	2349531.2500	3509014446.0659	3509012096.5347	0.0839	1.2983	-0.7528	0.5587	9.6041	1.9620	0.3939	-0.6617	0.2232	2349531.2500	-0.1276	0.3170	-0.2698	-0.9479	5.2375	-8.4602	-0.6920	1.9391	0.5352	2346855.4687	-0.6472	0.3481	0.6927	0.4254	9.4759	-2.1081	0.3098	-0.7912	-0.2558	0.0000	0.0000
2347949.2187	3.0999	-0.0157	-1.3412	-1.1594	9.4141	2.3616	-0.4190	-0.6466	-0.5531	2349541.0156	0.3980	0.5776	-0.0515	0.6642	9.7211	0.4026	-0.2923	-0.6445	-0.4731	2349541.0156	0.0886	-0.1003	-0.3972	2.0024	5.2034	-7.9712	-0.5412	-0.1458	0.5000	2349023.4375	2.3879	-3.0961	0.2531	0.8859	9.4499	2.6192	0.2431	-0.7263	0.0304	2349541.0156	3509014446.0757	3509012096.5347	0.0839	1.2983	-0.7528	0.5587	9.6818	1.9612	0.4122	-0.6447	0.1958	2349541.0156	-0.1276	0.3170	-0.2698	-0.8683	5.2391	-8.3822	-0.7320	1.9160	0.5751	2346865.2344	-0.6472	0.3481	0.6927	0.2670	9.4767	-2.0304	0.2987	-0.8027	-0.2442	0.0000	0.0000
2347958.9844	3.0999	-0.0157	-1.3412	-1.0798	9.5668	2.3593	-0.4133	-0.6680	-0.5466	2349550.7812	0.3980	0.5776	-0.0515	0.5846	9.6415	0.2470	-0.2923	-0.6445	-0.4731	2349550.7812	1.3107	-0.8984	-0.9800	1.4574	5.2004	-8.2731	-0.5332	-0.1500	0.5264	2349033.2031	2.1583	-3.0195	-0.0681	0.7327	9.5263	2.7744	0.2431	-0.7263	0.0304	2349550.7812	3509014446.0855	3509012096.5347	0.0839	1.2983	-0.7528	0.6369	9.6802	1.8032	0.4082	-0.6213	0.1789	2349550.7812	0.1844	-0.0442	-0.2906	-0.7895	5.1621	-8.3822	-0.7320	1.9160	0.5751	2346875.0000	-0.4322	0.8930	0.8962	0.3466	9.4767	-2.0304	0.2876	-0.7989	-0.2442	0.0000	0.0000
2347968.7500	3.2357	-0.8608	-1.0611	-1.0001	9.3377	2.3608	-0.4267	-0.6874	-0.5705	2349560.5469	0.3980	0.5776	-0.0515	0.6642	9.7983	0.3225	-0.2750	-0.6465	-0.4753	2349560.5469	1.3107	-0.8984	-0.9800	1.8467	5.0481	-7.8144	-0.5151	-0.1229	0.4890	2349042.9687	2.1583	-3.0195	-0.0681	0.6538	9.4499	2.6215	0.2353	-0.7593	0.0445	2349560.5469	3509014446.0952	3509012096.5347	0.4894	0.1479	-1.3464	0.4804	9.6802	1.8032	0.4082	-0.6213	0.1789	2349560.5469	0.1844	-0.0442	-0.2906	-0.7887	5.2407	-8.3042	-0.7140	1.9055	0.5822	2346884.7656	-0.4322	0.8930	0.8962	0.3466	9.4767	-2.0304	0.3024	-0.8084	-0.2419	0.0000	0.0000
2347978.5156	3.2357	-0.8608	-1.0611	-1.1587	9.4141	2.4368	-0.4133	-0.6738	-0.5553	2349570.3125	3.1137	-5.7932	0.8000	0.1866	9.7211	0.4026	-0.2808	-0.6621	-0.4946	2349570.3125	1.3107	-0.8984	-0.9800	1.6910	5.0473	-7.8897	-0.5151	-0.1229	0.4890	2349052.7344	2.1583	-3.0195	-0.0681	0.6538	9.4499	2.6215	0.2294	-0.7016	0.0164	2349570.3125	3509014446.1050	3509012096.5347	0.4894	0.1479	-1.3464	0.4022	9.6810	1.8822	0.4041	-0.6362	0.2147	2349570.3125	0.1844	-0.0442	-0.2906	-0.8683	5.2391	-8.3822	-0.6920	1.9286	0.5469	2346894.5312	-0.4322	0.8930	0.8962	0.2670	9.5532	-2.0311	0.2839	-0.7874	-0.2488	0.0000	0.0000
2347988.2812	3.2357	-0.8608	-1.0611	-1.0790	9.4141	2.4360	-0.4229	-0.6951	-0.5531	2349580.0781	3.1137	-5.7932	0.8000	0.2662	9.5682	0.7202	-0.2750	-0.6270	-0.4710	2349580.0781	1.3107	-0.8984	-0.9800	1.7689	5.1242	-8.0449	-0.5352	-0.1729	0.5000	2349062.5000	2.2348	-3.5775	-0.1851	0.7319	9.4499	2.6979	0.2294	-0.7305	0.0258	2349580.0781	3509014446.1148	3509012096.5347	0.4894	0.1479	-1.3464	0.4804	9.7572	1.7234	0.4163	-0.6553	0.2084	2349580.0781	0.0143	0.5348	-0.1260	-0.9471	5.3161	-8.3822	-0.7260	1.8887	0.5704	2346904.2969	-0.4322	0.8930	0.8962	0.1874	9.5532	-2.0311	0.2931	-0.7893	-0.2350	0.0000	0.0000
2347998.0469	3.7919	-2.5387	-0.9108	-1.3181	9.4905	2.4377	-0.4038	-0.6369	-0.5445	2349589.8437	3.1137	-5.7932	0.8000	0.0274	9.6486	0.9544	-0.2750	-0.6270	-0.4710	2349589.8437	1.0247	0.6526	-2.4668	1.7689	5.2019	-8.1225	-0.5332	-0.1875	0.5176	2349072.2656	2.2348	-3.5775	-0.1851	0.5779	9.4499	2.7767	0.2294	-0.7305	0.0258	2349589.8437	3509014446.1245	3509012096.5347	0.4894	0.1479	-1.3464	0.3240	9.7596	1.9604	0.4163	-0.6553	0.2084	2349589.8437	0.0143	0.5348	-0.1260	-0.8675	5.3947	-8.3057	-0.7260	1.8887	0.5704	2346914.0625	-1.0270	1.3471	0.7382	0.3450	9.6281	-2.1874	0.2876	-0.7893	-0.2442	0.0000	0.0000
2348007.8125	3.7919	-2.5387	-0.9108	-1.2384	9.4141	2.4376	-0.4133	-0.6466	-0.5683	2349599.6094	5.1696	-4.8277	0.5517	-0.1318	9.8062	1.1085	-0.2904	-0.6738	-0.4839	2349599.6094	1.0247	0.6526	-2.4668	1.8467	5.2818	-7.9704	-0.5332	-0.1875	0.5176	2349082.0312	2.2348	-3.5775	-0.1851	0.5779	9.5263	2.7759	0.2431	-0.7305	0.0351	2349599.6094	3509014446.1343	3509012096.5347	0.3264	-1.2107	-2.4014	0.3240	9.6834	2.1192	0.4020	-0.6447	0.1811	2349599.6094	0.0143	0.5348	-0.1260	-0.7099	5.2406	-8.3058	-0.7080	1.9286	0.5798	2346923.8281	-1.0270	1.3471	0.7382	0.3458	9.4759	-2.1081	0.3043	-0.7663	-0.2373	0.0000	0.0000
2348017.5781	3.7919	-2.5387	-0.9108	-1.0798	9.4141	2.3608	-0.4038	-0.6408	-0.5466	2349609.3750	5.1696	-4.8277	0.5517	-0.4502	9.9631	1.1840	-0.2769	-0.6680	-0.5011	2349609.3750	1.0247	0.6526	-2.4668	1.6131	5.1235	-8.1202	-0.5131	-0.1333	0.4956	2349091.7969	2.2348	-3.5775	-0.1851	0.4998	9.4499	2.7003	0.2333	-0.7490	0.0211	2349609.3750	3509014446.1441	3509012096.5347	0.3264	-1.2107	-2.4014	0.3240	9.6826	2.0402	0.3837	-0.6766	0.2126	2349609.3750	0.0143	0.5348	-0.1260	-0.9480	5.5455	-8.4663	-0.7060	1.9076	0.5446	2346933.5937	-1.0270	1.3471	0.7382	0.1866	9.4759	-2.1081	0.2968	-0.7720	-0.2419	0.0000	0.0000
2348027.3437	3.2815	0.2127	-1.6210	-1.2384	9.4141	2.4376	-0.4152	-0.6485	-0.5510	2349619.1406	5.1696	-4.8277	0.5517	-0.6095	9.8858	1.2642	-0.2769	-0.6680	-0.5011	2349619.1406	0.8267	2.0782	-3.8646	1.8467	5.3610	-7.8944	-0.5171	-0.1458	0.4956	2349101.5625	2.2195	-3.2769	0.0019	0.4990	9.5263	2.6223	0.2294	-0.7099	0.0211	2349619.1406	3509014446.1538	3509012096.5347	0.3264	-1.2107	-2.4014	0.2457	9.7596	1.9604	0.4020	-0.7234	0.2063	2349619.1406	-0.0102	0.0753	0.5405	-0.8683	5.2391	-8.3822	-0.7060	1.9307	0.5704	2346943.3594	-1.0147	1.3773	0.4497	0.4254	9.4759	-2.1081	0.3080	-0.7720	-0.2419	0.0000	0.0000
2348037.1094	3.2815	0.2127	-1.6210	-1.2391	9.4905	2.3617	-0.4057	-0.6660	-0.5380	2349628.9062	1.8307	6.4230	-0.2172	-0.4502	9.7337	1.6604	-0.2962	-0.6621	-0.4688	2349628.9062	0.8267	2.0782	-3.8646	1.6910	4.9674	-8.0426	-0.5332	-0.1458	0.5132	2349111.3281	2.2195	-3.2769	0.0019	0.5013	9.4499	2.8546	0.2294	-0.7099	0.0211	2349628.9062	3509014446.1636	3509012096.5347	0.6159	-5.0191	-5.4568	0.1675	9.8381	2.0387	0.4020	-0.7234	0.2063	2349628.9062	-0.0102	0.0753	0.5405	-1.0267	5.2376	-8.4586	-0.7220	1.9307	0.5704	2346953.1250	-1.0147	1.3773	0.4497	0.4270	9.6304	-1.9541	0.3006	-0.8008	-0.2488	0.0000	0.0000
2348046.8750	3.2815	0.2127	-1.6210	-1.1580	9.4905	2.5113	-0.4210	-0.6718	-0.5618	2349638.6719	1.8307	6.4230	-0.2172	-0.2910	9.8094	1.4230	-0.2827	-0.6543	-0.4860	2349638.6719	0.8267	2.0782	-3.8646	1.9246	5.2057	-7.7400	-0.5332	-0.1458	0.5132	2349121.0937	2.2195	-3.2769	0.0019	0.5779	9.4499	2.7767	0.2392	-0.7572	0.0422	2349638.6719	3509014446.1734	3509012096.5347	0.6159	-5.0191	-5.4568	0.0110	9.6041	1.9620	0.3755	-0.6489	0.1832	2349638.6719	-0.0102	0.0753	0.5405	-1.0267	5.1606	-8.4571	-0.7200	1.9118	0.5751	2346962.8906	-1.0147	1.3773	0.4497	0.2655	9.4752	-2.1859	0.3098	-0.8199	-0.2419	0.0000	0.0000
2348056.6406	2.8767	1.7356	-1.8283	-1.1587	9.4141	2.4368	-0.4190	-0.6621	-0.5510	2349648.4375	1.8307	6.4230	-0.2172	0.1866	9.7266	0.9529	-0.2846	-0.6582	-0.5011	2349648.4375	-0.5766	-1.6501	-3.0972	1.7689	5.1242	-8.0449	-0.5050	-0.1250	0.5022	2349130.8594	2.1736	-2.2333	0.0151	0.5772	9.5263	2.6987	0.2353	-0.7078	0.0117	2349648.4375	3509014446.1831	3509012096.5347	0.6159	-5.0191	-5.4568	0.0892	9.6826	2.0402	0.3755	-0.6596	0.2084	2349648.4375	-1.0824	0.5608	-0.5441	-1.0267	5.3146	-8.4601	-0.6940	1.9265	0.5352	2346972.6562	0.0632	1.9222	0.2399	0.1858	9.5516	-2.1866	0.2820	-0.7644	-0.2419	0.0000	0.0000
2348066.4062	2.8767	1.7356	-1.8283	-1.0790	9.4141	2.4360	-0.4286	-0.6738	-0.5488	2349658.2031	1.8307	6.4230	-0.2172	0.8234	9.5674	0.6416	-0.2846	-0.6582	-0.5011	2349658.2031	-0.5766	-1.6501	-3.0972	1.7689	5.1242	-8.0449	-0.5252	-0.1583	0.4912	2349140.6250	2.1736	-2.2333	0.0151	0.7319	9.4499	2.6979	0.2353	-0.7078	0.0117	2349658.2031	3509014446.1929	3509012096.5347	-0.7801	-1.7345	-7.9205	0.4022	9.9159	2.0379	0.3755	-0.6596	0.2084	2349658.2031	-1.0824	0.5608	-0.5441	-1.0259	5.2392	-8.3790	-0.6940	1.9265	0.5352	2346982.4219	0.0632	1.9222	0.2399	0.4254	9.5524	-2.1089	0.2931	-0.7759	-0.2419	0.0000	0.0000
2348076.1719	2.8767	1.7356	-1.8283	-1.0001	9.4141	2.3600	-0.4190	-0.6699	-0.5618	2349667.9687	1.3143	7.5530	-0.9606	0.9826	9.5642	0.3271	-0.2750	-0.6289	-0.4667	2349667.9687	-0.5766	-1.6501	-3.0972	1.7689	5.1988	-8.4298	-0.5252	-0.1583	0.4912	2349150.3906	2.1736	-2.2333	0.0151	0.6561	9.4499	2.8531	0.2294	-0.7058	0.0258	2349667.9687	3509014446.2027	3509012096.5347	-0.7801	-1.7345	-7.9205	0.0892	9.9175	2.1959	0.3959	-0.6745	0.2147	2349667.9687	-1.0824	0.5608	-0.5441	-0.8683	5.2391	-8.3822	-0.7300	1.9328	0.5775	2346992.1875	0.0632	1.9222	0.2399	0.3443	9.5508	-2.2644	0.2931	-0.7912	-0.2419	0.0000	0.0000
2348085.9375	2.8767	1.7356	-1.8283	-1.0798	9.4141	2.3608	-0.4076	-0.6447	-0.5683	2349677.7344	1.3143	7.5530	-0.9606	0.8234	9.9560	0.4766	-0.2731	-0.6484	-0.4903	2349677.7344	0.2618	3.2740	-5.8540	1.7689	5.1234	-8.1217	-0.5392	-0.1229	0.5198	2349160.1562	2.2195	-1.9442	-0.0916	0.5795	9.5263	2.9303	0.2294	-0.7510	0.0492	2349677.7344	3509014446.2124	3509012096.5347	-0.7801	-1.7345	-7.9205	-0.3020	9.6072	2.2780	0.3816	-0.6574	0.1789	2349677.7344	-1.1515	-0.2531	0.3526	-0.9479	5.3915	-8.4632	-0.7040	1.9076	0.5681	2347001.9531	-0.6047	1.3773	0.3727	0.4254	9.6288	-2.1097	0.3061	-0.8142	-0.2442	0.0000	0.0000
2348095.7031	3.1538	1.4720	-1.7027	-1.0783	9.4905	2.5105	-0.3962	-0.6408	-0.5640	2349687.5000	1.3143	7.5530	-0.9606	0.3458	10.0356	0.6322	-0.2692	-0.6387	-0.4968	2349687.5000	0.2618	3.2740	-5.8540	1.6131	5.2011	-8.1978	-0.5171	-0.1604	0.5066	2349169.9219	2.2195	-1.9442	-0.0916	0.5779	9.4499	2.7767	0.2353	-0.7305	0.0094	2349687.5000	3509014446.2222	3509012096.5347	-1.7659	2.9979	-13.5556	-0.6149	9.6056	2.1200	0.3755	-0.6638	0.1979	2349687.5000	-1.1515	-0.2531	0.3526	-0.9479	5.3915	-8.4632	-0.7020	1.9328	0.5469	2347011.7187	-0.6047	1.3773	0.3727	0.4262	9.5532	-2.0311	0.2987	-0.7682	-0.2442	0.0000	0.0000
2348105.4687	3.1538	1.4720	-1.7027	-1.0790	9.2613	2.4376	-0.4038	-0.6447	-0.5531	2349697.2656	-1.8778	-4.8263	1.7598	0.0274	9.8835	1.0284	-0.2692	-0.6387	-0.4968	2349697.2656	0.2618	3.2740	-5.8540	1.7689	5.1242	-8.0449	-0.5070	-0.1083	0.5000	2349179.6875	2.2195	-1.9442	-0.0916	0.7335	9.4499	2.8523	0.2353	-0.7305	0.0094	2349697.2656	3509014446.2320	3509012096.5347	-1.7659	2.9979	-13.5556	-1.0061	9.6080	2.3570	0.3755	-0.6638	0.1979	2349697.2656	-1.1515	-0.2531	0.3526	-0.9487	5.3129	-8.5413	-0.7020	1.9328	0.5469	2347021.4844	-0.6047	1.3773	0.3727	0.3458	9.4759	-2.1081	0.3135	-0.7874	-0.2419	0.0000	0.0000
2348115.2344	3.1538	1.4720	-1.7027	-1.1587	9.4141	2.4368	-0.3981	-0.6369	-0.5748	2349707.0312	-1.8778	-4.8263	1.7598	-0.2910	9.8094	1.4230	-0.2865	-0.6230	-0.4710	2349707.0312	0.2618	3.2740	-5.8540	1.6910	5.1258	-7.8905	-0.5070	-0.1083	0.5000	2349189.4531	2.0817	-3.0374	0.1347	0.6546	9.4499	2.6987	0.2353	-0.6996	0.0187	2349707.0312	3509014446.2417	3509012096.5347	-1.7659	2.9979	-13.5556	-1.1626	9.8421	2.4337	0.3898	-0.6872	0.2189	2349707.0312	-2.2682	-2.4470	1.0542	-1.1063	5.3130	-8.5381	-0.7300	1.8950	0.5728	2347031.2500	-0.6047	1.3773	0.3727	0.3443	9.5508	-2.2644	0.2968	-0.7989	-0.2419	0.0000	0.0000
2348125.0000	2.8708	1.7203	-1.3458	-1.2369	9.4905	2.5873	-0.4152	-0.6641	-0.5510	2349716.7969	-1.8778	-4.8263	1.7598	-0.2910	9.7321	1.5031	-0.2673	-0.6621	-0.4903	2349716.7969	-0.1202	5.3124	-7.1222	1.8467	5.2042	-7.8928	-0.5412	-0.1271	0.5154	2349199.2187	2.0817	-3.0374	0.1347	0.6546	9.4499	2.6987	0.2353	-0.7325	0.0422	2349716.7969	3509014446.2515	3509012096.5347	-1.9120	11.2678	-25.1132	-1.4756	9.8437	2.5917	0.3796	-0.6702	0.1853	2349716.7969	-2.2682	-2.4470	1.0542	-1.1844	5.5456	-8.4616	-0.7100	1.9286	0.5657	2347041.0156	-0.3324	0.8476	0.2254	0.4247	9.3987	-2.1851	0.3024	-0.8199	-0.2419	0.0000	0.0000
2348134.7656	2.8708	1.7203	-1.3458	-1.2406	9.2613	2.2136	-0.4133	-0.6544	-0.5683	2349726.5625	-5.9023	11.0937	0.8619	-0.5299	9.8117	1.6588	-0.2750	-0.6426	-0.4946	2349726.5625	-0.1202	5.3124	-7.1222	1.8467	5.0465	-7.9681	-0.5252	-0.1104	0.5154	2349208.9844	2.0817	-3.0374	0.1347	0.5772	9.3735	2.7003	0.2275	-0.7366	0.0187	2349726.5625	3509014446.2613	3509012096.5347	-1.9120	11.2678	-25.1132	-1.4756	9.6104	2.5940	0.3796	-0.6702	0.1853	2349726.5625	-2.2682	-2.4470	1.0542	-1.0259	5.3161	-8.3806	-0.7120	1.9055	0.5423	2347050.7812	-0.3324	0.8476	0.2254	0.3450	9.5516	-2.1866	0.2894	-0.7950	-0.2373	0.0000	0.0000
2348144.5312	2.8708	1.7203	-1.3458	-1.0790	9.4905	2.4353	-0.4152	-0.6583	-0.5466	2349736.3281	-5.9023	11.0937	0.8619	-0.2114	9.7329	1.5818	-0.2750	-0.6426	-0.4946	2349736.3281	-0.1202	5.3124	-7.1222	1.8467	5.1242	-8.0457	-0.5252	-0.1104	0.5154	2349218.7500	1.9287	-2.9177	0.1145	0.6553	9.4499	2.7759	0.2275	-0.7366	0.0187	2349736.3281	3509014446.2710	3509012096.5347	-1.9120	11.2678	-25.1132	-1.1626	9.6858	2.3562	0.3714	-0.6702	0.1958	2349736.3281	-2.2682	-2.4470	1.0542	-1.4192	5.5488	-8.2978	-0.7120	1.9055	0.5423	2347060.5469	-0.3324	0.8476	0.2254	0.3466	9.5532	-2.0311	0.3135	-0.7931	-0.2465	0.0000	0.0000
2348154.2969	2.7621	0.9543	-1.0053	-1.0790	9.4141	2.4360	-0.4152	-0.6505	-0.5683	2349746.0937	-5.9023	11.0937	0.8619	0.0274	9.8850	1.1856	-0.2846	-0.6484	-0.4753	2349746.0937	-1.3064	5.6470	-6.3924	1.9246	5.0473	-7.8920	-0.5191	-0.1313	0.4956	2349228.5156	1.9287	-2.9177	0.1145	0.5764	9.5263	2.6215	0.2412	-0.7222	0.0164	2349746.0937	3509014446.2808	3509012096.5347	-1.9120	11.2678	-25.1132	-0.3020	9.7580	1.8024	0.3694	-0.6936	0.2189	2349746.0937	-8.5724	-3.5950	-0.3680	-1.1047	5.3162	-8.3790	-0.7240	1.9307	0.5751	2347070.3125	-1.3350	0.5903	0.3565	0.2662	9.7053	-2.1104	0.2876	-0.8027	-0.2419	0.0000	0.0000
2348164.0625	2.7621	0.9543	-1.0053	-0.9189	9.4141	2.5096	-0.4171	-0.6427	-0.5401	2349755.8594	-8.3978	21.4770	1.1614	0.5846	9.7290	1.1887	-0.2615	-0.6484	-0.4925	2349755.8594	-1.3064	5.6470	-6.3924	2.0803	4.9696	-7.8160	-0.5533	-0.1396	0.5088	2349238.2812	1.9287	-2.9177	0.1145	0.5772	9.4499	2.6995	0.2373	-0.7119	0.0375	2349755.8594	3509014446.2906	3509012096.5347	-0.2864	9.2800	-34.7364	0.2457	9.6818	1.9612	0.3714	-0.6787	0.1979	2349755.8594	-8.5724	-3.5950	-0.3680	-0.8699	5.0819	-8.5382	-0.7080	1.9244	0.5704	2347080.0781	-1.3350	0.5903	0.3565	0.2662	9.5524	-2.1089	0.3006	-0.8142	-0.2419	0.0000	0.0000
2348173.8281	2.7621	0.9543	-1.0053	-1.1580	9.4905	2.5113	-0.4000	-0.6427	-0.5727	2349765.6250	-8.3978	21.4770	1.1614	0.9826	9.7297	1.2673	-0.2615	-0.6484	-0.4925	2349765.6250	-1.3064	5.6470	-6.3924	1.9246	5.2042	-7.8936	-0.5312	-0.1313	0.5066	2349248.0469	1.9287	-2.9177	0.1145	0.7319	9.5263	2.6972	0.2373	-0.7119	0.0375	2349765.6250	3509014446.3003	3509012096.5347	-0.2864	9.2800	-34.7364	0.7934	9.6763	1.4082	0.3714	-0.6787	0.1979	2349765.6250	-8.5724	-3.5950	-0.3680	-1.0267	5.0836	-8.4555	-0.6940	1.9223	0.5305	2347089.8437	-1.3350	0.5903	0.3565	0.4254	9.4759	-2.1081	0.2727	-0.7912	-0.2396	0.0000	0.0000
2348183.5937	2.6103	-0.9927	-0.6893	-1.1602	9.4141	2.2864	-0.3981	-0.6583	-0.5510	2349775.3906	-8.3978	21.4770	1.1614	0.9030	9.8827	0.9498	-0.2615	-0.6426	-0.4946	2349775.3906	-0.9601	6.3519	-5.7654	1.7689	5.0473	-7.8905	-0.5312	-0.1313	0.5066	2349257.8125	1.6991	-1.8716	-0.3038	0.6545	9.5263	2.6980	0.2353	-0.7037	0.0164	2349775.3906	3509014446.3101	3509012096.5347	-0.2864	9.2800	-34.7364	0.8716	9.4430	1.4105	0.3653	-0.6574	0.1874	2349775.3906	-5.4898	-3.6636	-2.6987	-1.1063	5.4670	-8.5412	-0.6940	1.9223	0.5305	2347099.6094	-1.9192	0.1514	-0.2566	0.3451	9.4752	-2.1859	0.3154	-0.7720	-0.2419	0.0000	0.0000
2348193.3594	2.6103	-0.9927	-0.6893	-0.9204	9.4905	2.3585	-0.3981	-0.6602	-0.5770	2349785.1562	-8.3978	21.4770	1.1614	1.1418	9.7305	1.3459	-0.2750	-0.6484	-0.4688	2349785.1562	-0.9601	6.3519	-5.7654	1.8467	5.1265	-7.8152	-0.5412	-0.1437	0.4890	2349267.5781	1.6991	-1.8716	-0.3038	0.6546	9.4499	2.6987	0.2294	-0.7469	0.0117	2349785.1562	3509014446.3199	3509012096.5347	-2.1563	4.7442	-37.3549	1.1846	9.3637	1.2533	0.3633	-0.6787	0.2211	2349785.1562	-5.4898	-3.6636	-2.6987	-0.7115	5.3914	-8.4680	-0.7340	1.9265	0.5775	2347109.3750	-1.9192	0.1514	-0.2566	0.3466	9.5532	-2.0311	0.2876	-0.7874	-0.2419	0.0000	0.0000
2348203.1250	2.6103	-0.9927	-0.6893	-1.0790	9.4905	2.4353	-0.4038	-0.6505	-0.5531	2349794.9219	-11.6711	21.5121	6.6359	1.3010	9.8054	1.0299	-0.2481	-0.6387	-0.4903	2349794.9219	-0.9601	6.3519	-5.7654	2.0024	4.9696	-7.8152	-0.5372	-0.1417	0.5022	2349277.3437	1.6991	-1.8716	-0.3038	0.6553	9.5263	2.7751	0.2373	-0.7428	0.0422	2349794.9219	3509014446.3296	3509012096.5347	-2.1563	4.7442	-37.3549	1.5758	9.4383	0.9365	0.3633	-0.6787	0.2211	2349794.9219	-5.4898	-3.6636	-2.6987	-0.9504	5.8486	-8.7111	-0.6960	1.9034	0.5587	2347119.1406	-1.9192	0.1514	-0.2566	0.3450	9.5516	-2.1866	0.3061	-0.7854	-0.2419	0.0000	0.0000
2348212.8906	2.6103	-0.9927	-0.6893	-0.9181	9.5668	2.5833	-0.4190	-0.6447	-0.5618	2349804.6875	-11.6711	21.5121	6.6359	1.3010	9.8835	1.0284	-0.2481	-0.6387	-0.4903	2349804.6875	-0.9601	6.3519	-5.7654	2.0803	4.9689	-7.8928	-0.5372	-0.1417	0.5022	2349287.1094	1.8215	-1.1828	-0.9604	0.5779	9.5263	2.7759	0.2373	-0.7428	0.0422	2349804.6875	3509014446.3394	3509012096.5347	-2.1563	4.7442	-37.3549	1.8888	9.5192	1.2517	0.3531	-0.6702	0.2126	2349804.6875	-9.9886	-3.1407	0.0456	-0.7132	5.6962	-8.6332	-0.6960	1.9412	0.5469	2347128.9062	-1.5097	0.3935	-0.3791	0.4262	9.5532	-2.0311	0.2820	-0.7759	-0.2488	0.0000	0.0000
2348222.6562	2.8110	-1.4856	-0.4204	-0.9204	9.4905	2.3585	-0.4095	-0.6427	-0.5380	2349814.4531	-11.6711	21.5121	6.6359	1.3010	9.9607	0.9482	-0.2673	-0.6484	-0.4882	2349814.4531	1.3213	4.9150	-4.8447	2.0024	5.1257	-7.8936	-0.5473	-0.1271	0.5022	2349296.8750	1.8215	-1.1828	-0.9604	0.6561	9.4499	2.8531	0.2392	-0.7469	0.0117	2349814.4531	3509014446.3492	3509012096.5347	-2.1855	16.1765	-38.7569	2.0452	9.5977	1.3299	0.3327	-0.6915	0.1916	2349814.4531	-9.9886	-3.1407	0.0456	-1.3435	5.1575	-8.6099	-0.6960	1.9412	0.5469	2347138.6719	-1.5097	0.3935	-0.3791	0.4247	9.4752	-2.1859	0.3117	-0.8065	-0.2488	0.0000	0.0000
2348232.4219	2.8110	-1.4856	-0.4204	-0.9993	9.4905	2.4345	-0.4152	-0.6447	-0.5662	2349824.2187	-17.6659	15.2808	13.5792	1.2214	9.9623	1.1054	-0.2596	-0.6738	-0.4731	2349824.2187	1.3213	4.9150	-4.8447	2.0024	4.8905	-7.8913	-0.5171	-0.0937	0.4890	2349306.6406	1.8215	-1.1828	-0.9604	0.5780	9.3735	2.7774	0.2216	-0.7202	0.0164	2349824.2187	3509014446.3589	3509012096.5347	-2.1855	16.1765	-38.7569	1.5758	9.5192	1.2517	0.3347	-0.6787	0.2274	2349824.2187	-9.9886	-3.1407	0.0456	-1.7367	5.1593	-8.5224	-0.7300	1.9097	0.5822	2347148.4375	-1.5097	0.3935	-0.3791	0.1843	9.2442	-2.3391	0.2913	-0.8046	-0.2396	0.0000	0.0000
2348242.1875	2.8110	-1.4856	-0.4204	-0.9196	9.4905	2.4337	-0.4152	-0.6369	-0.5380	2349833.9844	-17.6659	15.2808	13.5792	1.3806	9.9709	1.9701	-0.2481	-0.6465	-0.4882	2349833.9844	1.3213	4.9150	-4.8447	2.0803	4.8912	-7.8152	-0.5372	-0.1083	0.4956	2349316.4062	1.8062	-1.1107	-0.6231	0.5006	9.4499	2.7775	0.2353	-0.7469	0.0398	2349833.9844	3509014446.3687	3509012096.5347	-2.1855	16.1765	-38.7569	1.8105	9.4407	1.1735	0.3347	-0.6787	0.2274	2349833.9844	-9.9886	-3.1407	0.0456	-1.6539	5.0132	-8.1232	-0.6980	1.9349	0.5634	2347158.2031	-1.5097	0.3935	-0.3791	0.1851	9.5508	-2.2644	0.3061	-0.7931	-0.2327	0.0000	0.0000
2348251.9531	3.1594	-2.5170	-0.1971	-1.0782	9.3377	2.5120	-0.4000	-0.6641	-0.5727	2349843.7500	-17.6659	15.2808	13.5792	0.9826	9.9733	2.2059	-0.2481	-0.6465	-0.4882	2349843.7500	2.3119	2.3530	-1.4744	2.0024	5.1242	-8.0473	-0.5372	-0.1083	0.4956	2349326.1719	1.8062	-1.1107	-0.6231	0.5764	9.3735	2.6231	0.2353	-0.7469	0.0398	2349843.7500	3509014446.3784	3509012096.5347	-0.3773	28.7368	-33.1634	2.3582	9.2851	1.1750	0.3204	-0.7298	0.2274	2349843.7500	-9.0543	-5.9409	6.0711	-0.7903	5.0835	-8.4602	-0.7080	1.9097	0.5376	2347167.9687	-1.0671	0.6811	-0.2301	0.3466	9.4767	-2.0304	0.2987	-0.7644	-0.2327	0.0000	0.0000
2348261.7187	3.1594	-2.5170	-0.1971	-0.9196	9.4905	2.4337	-0.4019	-0.6602	-0.5488	2349853.5156	-21.3050	21.4013	21.2095	0.9826	9.9741	2.2845	-0.2635	-0.6641	-0.4925	2349853.5156	2.3119	2.3530	-1.4744	1.9246	5.2042	-7.8936	-0.5433	-0.1104	0.5110	2349335.9375	1.8062	-1.1107	-0.6231	0.6545	9.5263	2.6980	0.2451	-0.7202	0.0094	2349853.5156	3509014446.3882	3509012096.5347	-0.3773	28.7368	-33.1634	2.6711	8.9781	1.5732	0.3224	-0.6660	0.2021	2349853.5156	-9.0543	-5.9409	6.0711	-0.2354	4.7047	-8.1454	-0.7080	1.9097	0.5376	2347177.7344	-1.0671	0.6811	-0.2301	0.3450	9.5516	-2.1866	0.3154	-0.7663	-0.2419	0.0000	0.0000
2348271.4844	3.1594	-2.5170	-0.1971	-1.2376	9.4141	2.5128	-0.4019	-0.6796	-0.5727	2349863.2812	-21.3050	21.4013	21.2095	1.6194	10.0505	2.1258	-0.2442	-0.6621	-0.4667	2349863.2812	2.3119	2.3530	-1.4744	2.0024	5.0465	-7.9696	-0.5151	-0.1000	0.5022	2349345.7031	2.2195	-1.2177	-0.0996	0.5764	9.5263	2.6215	0.2255	-0.7202	0.0094	2349863.2812	3509014446.3980	3509012096.5347	-0.3773	28.7368	-33.1634	2.9059	8.9789	1.6522	0.3224	-0.6660	0.2021	2349863.2812	-9.0543	-5.9409	6.0711	-0.2354	4.7047	-8.1454	-0.7120	1.9286	0.5775	2347187.5000	-1.0671	0.6811	-0.2301	0.3450	9.5516	-2.1866	0.3024	-0.7931	-0.2327	0.0000	0.0000
2348281.2500	2.6739	-2.7730	-0.4708	-1.0798	9.4905	2.3601	-0.3981	-0.6602	-0.5466	2349873.0469	-21.3050	21.4013	21.2095	2.2562	10.0537	2.4402	-0.2231	-0.6543	-0.4753	2349873.0469	1.6600	2.9761	-0.0933	2.1582	5.0480	-7.8176	-0.5151	-0.1000	0.5022	2349355.4687	2.2195	-1.2177	-0.0996	0.6553	9.5263	2.7751	0.2255	-0.7202	0.0094	2349873.0469	3509014446.4077	3509012096.5347	-0.3773	28.7368	-33.1634	3.0623	8.8964	1.1789	0.3122	-0.6745	0.2379	2349873.0469	-4.8356	-6.1512	3.4072	-0.2354	4.5508	-8.1423	-0.7000	1.9223	0.5563	2347197.2656	-0.5326	0.3784	-0.0242	0.4247	9.4752	-2.1859	0.3043	-0.8046	-0.2396	0.0000	0.0000
2348291.0156	2.6739	-2.7730	-0.4708	-1.2399	9.4905	2.2865	-0.4095	-0.6738	-0.5727	2349882.8125	-30.9726	35.2057	35.4401	2.8930	10.4431	2.3538	-0.2231	-0.6543	-0.4753	2349882.8125	1.6600	2.9761	-0.0933	2.0803	5.1249	-7.9712	-0.5312	-0.1083	0.5066	2349365.2344	2.2195	-1.2177	-0.0996	0.7319	9.4499	2.6979	0.2392	-0.7222	0.0398	2349882.8125	3509014446.4175	3509012096.5347	1.7816	23.9314	-22.9649	3.2971	8.8948	1.0209	0.3041	-0.7085	0.2400	2349882.8125	-4.8356	-6.1512	3.4072	-0.4759	5.3127	-8.5507	-0.7000	1.9223	0.5563	2347207.0312	-0.5326	0.3784	-0.0242	0.3458	9.4759	-2.1081	0.2987	-0.7893	-0.2258	0.0000	0.0000
2348300.7812	2.6739	-2.7730	-0.4708	-0.9993	9.4905	2.4345	-0.4114	-0.6466	-0.5401	2349892.5781	-30.9726	35.2057	35.4401	3.9279	10.7583	2.6620	-0.2308	-0.6934	-0.4774	2349892.5781	1.6600	2.9761	-0.0933	2.0803	5.2833	-7.8191	-0.5594	-0.1271	0.5176	2349375.0000	2.2195	-1.2177	-0.0996	0.8085	9.4499	2.6200	0.2196	-0.7531	0.0094	2349892.5781	3509014446.4273	3509012096.5347	1.7816	23.9314	-22.9649	3.1406	8.9710	0.8621	0.3000	-0.6745	0.2063	2349892.5781	-4.8356	-6.1512	3.4072	-0.9447	5.3209	-8.1435	-0.6960	1.9160	0.5399	2347216.7969	-0.5326	0.3784	-0.0242	0.2662	9.4759	-2.1081	0.3154	-0.7816	-0.2442	0.0000	0.0000
2348310.5469	3.3407	-1.7057	-0.7807	-1.3188	9.4905	2.3625	-0.4210	-0.6583	-0.5683	2349902.3437	-30.9726	35.2057	35.4401	5.1219	10.9964	3.0503	-0.2115	-0.6582	-0.4602	2349902.3437	0.8119	3.6016	-1.0364	2.0024	5.2818	-7.9720	-0.5252	-0.1021	0.4978	2349384.7656	1.8827	-0.6601	-0.2111	0.6546	9.4499	2.6987	0.2412	-0.7016	0.0023	2349902.3437	3509014446.4370	3509012096.5347	1.7816	23.9314	-22.9649	2.9841	9.0471	0.7034	0.3000	-0.6745	0.2063	2349902.3437	-6.3352	-3.4345	9.5257	-1.0210	4.5558	-7.8879	-0.7120	1.9349	0.5822	2347226.5625	-0.7355	0.9535	-0.5313	0.2662	9.4759	-2.1081	0.3006	-0.7931	-0.2350	0.0000	0.0000
2348320.3125	3.3407	-1.7057	-0.7807	-1.1587	9.5668	2.4353	-0.4019	-0.6563	-0.5423	2349912.1094	-30.9726	35.2057	35.4401	6.6343	11.2336	3.3601	-0.2000	-0.6816	-0.4774	2349912.1094	0.8119	3.6016	-1.0364	2.0803	5.2780	-8.3569	-0.5252	-0.1021	0.4978	2349394.5312	1.8827	-0.6601	-0.2111	0.5764	9.5263	2.6215	0.2412	-0.7016	0.0023	2349912.1094	3509014446.4468	3509012096.5347	5.9161	30.3092	-16.3457	3.0623	8.8916	0.7049	0.2816	-0.6766	0.2253	2349912.1094	-6.3352	-3.4345	9.5257	-0.7042	4.4049	-7.7320	-0.6900	1.9013	0.5516	2347236.3281	-0.7355	0.9535	-0.5313	0.4231	9.4736	-2.3414	0.3006	-0.7969	-0.2488	0.0000	0.0000
2348330.0781	3.3407	-1.7057	-0.7807	-1.1587	9.4141	2.4368	-0.4152	-0.6602	-0.5618	2349921.8750	-44.9818	43.4784	71.8084	7.8284	11.3077	2.9655	-0.2000	-0.6816	-0.4774	2349921.8750	0.8119	3.6016	-1.0364	2.0024	5.5094	-8.7426	-0.5412	-0.1458	0.4868	2349404.2969	1.8827	-0.6601	-0.2111	0.6545	9.6026	2.6972	0.2373	-0.7613	0.0398	2349921.8750	3509014446.4566	3509012096.5347	5.9161	30.3092	-16.3457	3.4535	9.1249	0.7026	0.2816	-0.7064	0.2358	2349921.8750	-6.3352	-3.4345	9.5257	-0.0786	4.7801	-8.2296	-0.6900	1.9013	0.5516	2347246.0937	-0.7355	0.9535	-0.5313	0.2655	9.4752	-2.1859	0.2950	-0.7950	-0.2350	0.0000	0.0000
2348339.8437	3.3407	-1.7057	-0.7807	-1.1594	9.4141	2.3616	-0.4000	-0.6621	-0.5445	2349931.6406	-44.9818	43.4784	71.8084	7.8284	11.7618	1.5412	-0.1808	-0.7285	-0.4753	2349931.6406	0.8119	3.6016	-1.0364	2.1582	5.5832	-9.2059	-0.5573	-0.1396	0.5176	2349414.0625	1.6685	-0.2801	-0.5912	0.5787	9.4499	2.8539	0.2314	-0.7510	0.0211	2349931.6406	3509014446.4663	3509012096.5347	5.9161	30.3092	-16.3457	3.8447	9.0511	1.0984	0.2816	-0.7064	0.2358	2349931.6406	1.8445	-2.7652	12.7597	-0.2305	4.3293	-7.6603	-0.6880	1.9370	0.5493	2347255.8594	0.4925	1.1049	-0.9441	0.3451	9.3222	-2.1844	0.2876	-0.7816	-0.2373	0.0000	0.0000
2348349.6094	3.1865	-1.3053	-0.2187	-1.3181	9.4905	2.4377	-0.4114	-0.6777	-0.5727	2349941.4062	-44.9818	43.4784	71.8084	7.8284	12.3742	0.3496	-0.1596	-0.7246	-0.4538	2349941.4062	2.1579	20.3192	-1.7037	2.8589	5.1156	-8.9009	-0.5573	-0.1396	0.5176	2349423.8281	1.6685	-0.2801	-0.5912	0.5780	9.3735	2.7774	0.2353	-0.7222	0.0047	2349941.4062	3509014446.4761	3509012096.5347	14.5538	3.2321	-7.3654	3.5318	9.3621	1.0953	0.2796	-0.6936	0.2063	2349941.4062	1.8445	-2.7652	12.7597	-0.4774	4.9246	-8.7021	-0.7140	1.9055	0.5892	2347265.6250	0.4925	1.1049	-0.9441	0.3458	9.4759	-2.1081	0.2931	-0.7969	-0.2396	0.0000	0.0000
2348359.3750	3.1865	-1.3053	-0.2187	-1.1587	9.4905	2.4361	-0.4114	-0.6602	-0.5466	2349951.1719	-35.5650	46.0341	120.3887	5.5995	12.2182	0.3527	-0.1596	-0.7246	-0.4538	2349951.1719	2.1579	20.3192	-1.7037	2.8589	4.6297	-10.4326	-0.5352	-0.1271	0.4868	2349433.5937	1.6685	-0.2801	-0.5912	0.5779	9.5263	2.7759	0.2353	-0.7222	0.0047	2349951.1719	3509014446.4859	3509012096.5347	14.5538	3.2321	-7.3654	2.5929	9.6716	0.9341	0.2633	-0.6957	0.2105	2349951.1719	1.8445	-2.7652	12.7597	-0.7131	5.3112	-8.6255	-0.6840	1.9391	0.5446	2347275.3906	0.4925	1.1049	-0.9441	0.3435	9.4736	-2.3414	0.2913	-0.7989	-0.2373	0.0000	0.0000
2348369.1406	3.1865	-1.3053	-0.2187	-1.1587	9.5668	2.4353	-0.4114	-0.6796	-0.5683	2349960.9375	-35.5650	46.0341	120.3887	1.9378	13.4612	-0.2225	-0.1346	-0.7148	-0.4645	2349960.9375	2.1579	20.3192	-1.7037	3.1703	5.1049	-9.9795	-0.5332	-0.1313	0.4780	2349443.3594	1.6838	0.6882	-0.5519	0.5780	9.3735	2.7774	0.2431	-0.7160	0.0351	2349960.9375	3509014446.4956	3509012096.5347	14.5538	3.2321	-7.3654	1.6540	9.2867	1.3331	0.2755	-0.7234	0.2358	2349960.9375	1.8445	-2.7652	12.7597	-1.3402	4.4710	-8.2778	-0.6840	1.9391	0.5446	2347285.1562	0.4925	1.1049	-0.9441	0.3458	9.4759	-2.1081	0.2968	-0.7682	-0.2281	0.0000	0.0000
2348378.9062	2.9312	0.1548	-0.6215	-1.0797	9.3377	2.3616	-0.4000	-0.6369	-0.5315	2349970.7031	-35.5650	46.0341	120.3887	-1.9627	14.9493	0.2981	-0.1250	-0.7441	-0.4581	2349970.7031	34.9521	82.9510	26.6925	1.3796	7.5108	-12.5211	-0.5594	-0.1458	0.4846	2349453.1250	1.6838	0.6882	-0.5519	0.6546	9.4499	2.6987	0.2392	-0.7119	0.0187	2349970.7031	3509014446.5054	3509012096.5347	19.7408	-9.5509	-0.6316	1.4976	9.4486	1.9635	0.2755	-0.7234	0.2358	2349970.7031	6.3047	5.8333	9.2792	-1.3443	5.3099	-8.6925	-0.7180	1.9097	0.5493	2347294.9219	-0.1130	1.2865	-0.6471	0.3458	9.5524	-2.1089	0.2894	-0.7854	-0.2350	0.0000	0.0000
2348388.6719	2.9312	0.1548	-0.6215	-1.0790	9.2613	2.4376	-0.4057	-0.6485	-0.5683	2349980.4687	-28.5805	37.8368	115.5668	-3.3955	16.5312	2.3893	-0.0885	-0.7090	-0.4344	2349980.4687	34.9521	82.9510	26.6925	-2.6691	14.0665	-7.9363	-0.5594	-0.1458	0.4846	2349462.8906	1.6838	0.6882	-0.5519	0.5006	9.5263	2.7767	0.2392	-0.7119	0.0187	2349980.4687	3509014446.5152	3509012096.5347	19.7408	-9.5509	-0.6316	1.4976	10.3110	2.6660	0.2816	-0.7085	0.2000	2349980.4687	6.3047	5.8333	9.2792	-1.3483	5.5329	-9.0949	-0.7120	1.9202	0.5775	2347304.6875	-0.1130	1.2865	-0.6471	0.2662	9.5524	-2.1089	0.3154	-0.7701	-0.2373	0.0000	0.0000
2348398.4375	2.9312	0.1548	-0.6215	-1.2376	9.4141	2.5128	-0.3924	-0.6369	-0.5445	2349990.2344	-28.5805	37.8368	115.5668	-0.1318	17.0908	3.7147	-0.0885	-0.7090	-0.4344	2349990.2344	34.9521	82.9510	26.6925	3.1703	14.9463	-21.9099	-0.5594	-0.1500	0.4515	2349472.6562	1.5460	2.2867	-1.6417	0.6553	9.3735	2.7767	0.2275	-0.7181	0.0070	2349990.2344	3509014446.5249	3509012096.5347	19.7408	-9.5509	-0.6316	1.8888	10.7815	3.0564	0.2816	-0.7021	0.2000	2349990.2344	6.3047	5.8333	9.2792	-1.2686	4.9956	-9.0061	-0.7160	1.9223	0.5446	2347314.4531	-0.1130	1.2865	-0.6471	0.2655	9.4752	-2.1859	0.2950	-0.7912	-0.2535	0.0000	0.0000
2348408.2031	3.0305	0.6294	-0.5162	-1.1595	9.5668	2.3601	-0.4210	-0.6835	-0.5597	2350000.0000	-28.5805	37.8368	115.5668	0.1070	17.9303	1.8109	-0.0673	-0.7676	-0.4538	2350000.0000	-5.3664	104.6209	155.0758	13.4477	20.6356	-17.6902	-0.5614	-0.1458	0.4097	2349482.4219	1.5460	2.2867	-1.6417	0.7335	9.4499	2.8523	0.2431	-0.7366	0.0328	2350000.0000	3509014446.5347	3509012096.5347	15.5625	-6.5747	-5.5337	1.8888	10.3228	3.8511	0.2816	-0.7021	0.2000	2350000.0000	4.4580	-2.4932	10.3345	-1.1119	5.3019	-9.0950	-0.7160	1.9223	0.5446	2347324.2187	-0.0859	1.8465	-0.9816	0.2662	9.4759	-2.1081	0.3080	-0.7701	-0.2258	0.0000	0.0000
2348417.9687	3.0305	0.6294	-0.5162	-1.1594	9.4141	2.3616	-0.4000	-0.6369	-0.5597	2350009.7656	0.5906	62.3796	155.6499	-2.0423	17.7947	3.8579	-0.0250	-0.7324	-0.4581	2350009.7656	-5.3664	104.6209	155.0758	11.5012	13.9298	-13.7621	-0.5614	-0.1458	0.4097	2349492.1875	1.5460	2.2867	-1.6417	0.6545	9.5263	2.6980	0.2353	-0.7099	0.0304	2350009.7656	3509014446.5445	3509012096.5347	15.5625	-6.5747	-5.5337	2.2017	10.0943	4.3275	0.2837	-0.7383	0.2189	2350009.7656	4.4580	-2.4932	10.3345	-1.7367	5.3902	-8.5270	-0.7000	1.9097	0.5376	2347333.9844	-0.0859	1.8465	-0.9816	0.2655	9.3987	-2.1851	0.2894	-0.7682	-0.2327	0.0000	0.0000
2348427.7344	3.0305	0.6294	-0.5162	-1.0008	9.4141	2.2848	-0.4171	-0.6796	-0.5748	2350019.5312	0.5906	62.3796	155.6499	-2.9179	17.1618	3.0057	-0.0077	-0.7305	-0.4344	2350019.5312	-5.3664	104.6209	155.0758	10.0219	10.3432	-11.6370	-0.5835	-0.1833	0.4273	2349501.9531	1.5460	2.2867	-1.6417	0.7327	9.4499	2.7751	0.2353	-0.7099	0.0304	2350019.5312	3509014446.5542	3509012096.5347	15.5625	-6.5747	-5.5337	2.4364	9.7126	5.0424	0.2898	-0.7319	0.1916	2350019.5312	4.4580	-2.4932	10.3345	-1.6595	5.2330	-8.6847	-0.7280	1.8929	0.5775	2347343.7500	-0.0859	1.8465	-0.9816	0.1851	9.6273	-2.2652	0.3135	-0.7663	-0.2304	0.0000	0.0000
2348437.5000	3.2314	0.2899	-0.3122	-1.1595	9.5668	2.3601	-0.4057	-0.6602	-0.5531	2350029.2969	0.5906	62.3796	155.6499	-1.4055	16.2104	1.5308	-0.0077	-0.7305	-0.4344	2350029.2969	-5.3664	104.6209	155.0758	7.0633	9.0910	-11.3644	-0.5573	-0.1938	0.4317	2349511.7187	1.3470	3.3622	-1.9395	0.6553	9.4499	2.7759	0.2255	-0.7016	0.0117	2350029.2969	3509014446.5640	3509012096.5347	15.5625	-6.5747	-5.5337	2.5929	9.4809	5.2027	0.2898	-0.7085	0.1874	2350029.2969	1.6671	3.9771	5.9508	-1.8131	5.0871	-8.2807	-0.6960	1.8971	0.5352	2347353.5156	0.7349	2.4822	-1.0447	0.2662	9.4759	-2.1081	0.2987	-0.7835	-0.2488	0.0000	0.0000
2348447.2656	3.2314	0.2899	-0.3122	-1.2369	9.4141	2.5880	-0.4114	-0.6777	-0.5597	2350039.0625	0.5906	62.3796	155.6499	-0.1318	15.6634	1.4631	0.0462	-0.7637	-0.4516	2350039.0625	9.1530	-19.4734	200.6868	5.4282	8.2247	-11.7236	-0.5453	-0.2187	0.4031	2349521.4844	1.3470	3.3622	-1.9395	0.6561	9.5263	2.8523	0.2294	-0.7346	0.0398	2350039.0625	3509014446.5738	3509012096.5347	6.4917	-19.9029	-6.0192	2.2800	9.5508	4.4119	0.2898	-0.7085	0.1874	2350039.0625	1.6671	3.9771	5.9508	-1.5767	5.0100	-8.2838	-0.6960	1.8971	0.5352	2347363.2812	0.7349	2.4822	-1.0447	0.2662	9.5524	-2.1089	0.3154	-0.8065	-0.2373	0.0000	0.0000
2348457.0312	3.2314	0.2899	-0.3122	-1.2391	9.4905	2.3617	-0.4171	-0.6544	-0.5662	2350048.8281	0.0399	68.4515	161.0729	0.4254	15.6453	-0.3448	0.0846	-0.7832	-0.4645	2350048.8281	9.1530	-19.4734	200.6868	7.9976	8.7473	-14.3667	-0.5453	-0.2187	0.4031	2349531.2500	1.3470	3.3622	-1.9395	0.6545	9.6026	2.6972	0.2471	-0.7325	0.0258	2350048.8281	3509014446.5835	3509012096.5347	6.4917	-19.9029	-6.0192	1.4193	9.6881	2.5932	0.2980	-0.7170	0.2105	2350048.8281	1.6671	3.9771	5.9508	-1.4929	4.1727	-7.7912	-0.7080	1.9370	0.5493	2347373.0469	0.7349	2.4822	-1.0447	0.2654	9.5516	-2.1866	0.2727	-0.7835	-0.2419	0.0000	0.0000
2348466.7969	3.2314	0.2899	-0.3122	-1.0790	9.4141	2.4360	-0.4038	-0.6447	-0.5618	2350058.5937	0.0399	68.4515	161.0729	-0.4502	15.7053	-2.1544	0.1000	-0.7168	-0.4323	2350058.5937	9.1530	-19.4734	200.6868	10.7226	7.6514	-14.1525	-0.5734	-0.2542	0.4119	2349541.0156	0.9031	4.0327	-1.3415	0.5772	9.5263	2.6987	0.2471	-0.7325	0.0258	2350058.5937	3509014446.5933	3509012096.5347	6.4917	-19.9029	-6.0192	0.6369	9.3747	2.3593	0.2959	-0.7170	0.1979	2350058.5937	1.6671	3.9771	5.9508	-1.4165	4.1679	-8.0314	-0.7260	1.8992	0.5869	2347382.8125	0.1472	3.4055	-0.4908	0.2662	9.4759	-2.1081	0.2968	-0.7874	-0.2396	0.0000	0.0000
2348476.5625	3.2367	-1.0143	-0.1677	-0.9985	9.3377	2.5112	-0.4000	-0.6350	-0.5531	2350068.3594	0.0399	68.4515	161.0729	-0.6891	14.7744	-1.5854	0.1000	-0.7168	-0.4323	2350068.3594	29.3545	8.4188	160.2437	11.0341	5.4655	-13.1350	-0.5654	-0.2979	0.4053	2349550.7812	0.9031	4.0327	-1.3415	0.5779	9.5263	2.7759	0.2353	-0.7181	0.0070	2350068.3594	3509014446.6031	3509012096.5347	-0.5634	-17.4176	-1.4914	1.1064	9.9175	2.1959	0.2959	-0.7170	0.1979	2350068.3594	14.4571	20.6779	-5.8246	-0.7919	5.1573	-8.6209	-0.6880	1.9328	0.5446	2347392.5781	0.1472	3.4055	-0.4908	0.4254	9.5524	-2.1089	0.2876	-0.7931	-0.2419	0.0000	0.0000
2348486.3281	3.2367	-1.0143	-0.1677	-1.0782	9.3377	2.5120	-0.4000	-0.6408	-0.5575	2350078.1250	-2.1082	-21.1899	139.6278	-1.4851	12.8243	-1.4678	0.1308	-0.7520	-0.4581	2350078.1250	29.3545	8.4188	160.2437	10.2555	3.1213	-12.2586	-0.5654	-0.2979	0.4053	2349560.5469	0.9031	4.0327	-1.3415	0.6553	9.5263	2.7751	0.2373	-0.7181	0.0539	2350078.1250	3509014446.6128	3509012096.5347	-0.5634	-17.4176	-1.4914	1.9670	9.6818	1.9612	0.2816	-0.7149	0.1747	2350078.1250	14.4571	20.6779	-5.8246	-0.6367	5.4604	-8.8689	-0.6880	1.9328	0.5446	2347402.3437	0.1472	3.4055	-0.4908	0.2670	9.4003	-2.0296	0.3080	-0.7989	-0.2327	0.0000	0.0000
2348496.0937	3.2367	-1.0143	-0.1677	-1.0798	9.4141	2.3608	-0.4076	-0.6369	-0.5662	2350087.8906	-2.1082	-21.1899	139.6278	-2.0423	11.4182	-1.5969	0.1635	-0.7285	-0.4473	2350087.8906	29.3545	8.4188	160.2437	8.8540	1.7913	-11.9240	-0.5352	-0.2917	0.3965	2349570.3125	-0.6888	3.5936	0.1230	0.5764	9.5263	2.6215	0.2373	-0.7181	0.0539	2350087.8906	3509014446.6226	3509012096.5347	-0.5634	-17.4176	-1.4914	2.4364	9.4572	2.8326	0.2939	-0.6915	0.2063	2350087.8906	14.4571	20.6779	-5.8246	-1.0291	5.3868	-8.7003	-0.7320	1.9202	0.5516	2347412.1094	0.1472	3.4055	-0.4908	0.3458	9.3995	-2.1074	0.2801	-0.7874	-0.2327	0.0000	0.0000
2348505.8594	2.6085	-1.7597	-0.3951	-0.9196	9.5668	2.4329	-0.4171	-0.6718	-0.5662	2350097.6562	-2.1082	-21.1899	139.6278	-2.2015	9.9348	-1.6459	0.1635	-0.7285	-0.4473	2350097.6562	33.2589	-50.0272	71.3885	7.5304	0.3098	-11.0508	-0.5493	-0.3333	0.4075	2349580.0781	-0.6888	3.5936	0.1230	0.4967	9.6790	2.3892	0.2314	-0.7387	0.0328	2350097.6562	3509014446.6324	3509012096.5347	0.2843	-14.2624	-5.0898	2.2017	9.2287	3.3089	0.2694	-0.7511	0.2063	2350097.6562	9.2138	8.0951	-4.1740	-1.0292	5.6177	-8.7050	-0.7200	1.9097	0.5751	2347421.8750	-0.9243	3.8141	0.3552	0.4239	9.6273	-2.2652	0.3154	-0.7950	-0.2281	0.0000	0.0000
2348515.6250	2.6085	-1.7597	-0.3951	-1.0008	9.3377	2.2856	-0.4076	-0.6602	-0.5575	2350107.4219	-10.0304	-61.6948	99.9407	-2.0423	9.1536	-1.7089	0.1519	-0.7539	-0.4323	2350107.4219	33.2589	-50.0272	71.3885	7.1411	-0.3921	-10.6557	-0.5433	-0.3479	0.4185	2349589.8437	-0.6888	3.5936	0.1230	0.5725	9.8317	2.2325	0.2373	-0.7160	0.0000	2350107.4219	3509014446.6421	3509012096.5347	0.2843	-14.2624	-5.0898	2.8276	9.2248	2.9139	0.2694	-0.7511	0.2063	2350107.4219	9.2138	8.0951	-4.1740	-0.7911	5.1589	-8.5413	-0.7200	1.9097	0.5751	2347431.6406	-0.9243	3.8141	0.3552	0.3458	9.4759	-2.1081	0.2876	-0.8046	-0.2396	0.0000	0.0000
2348525.3906	2.6085	-1.7597	-0.3951	-1.1610	9.4905	2.2105	-0.4152	-0.6699	-0.5445	2350117.1875	-10.0304	-61.6948	99.9407	-2.6791	8.3733	-1.6933	0.2019	-0.7305	-0.4602	2350117.1875	33.2589	-50.0272	71.3885	7.5304	-1.1725	-10.2677	-0.5433	-0.3479	0.4185	2349599.6094	0.5664	-0.5769	2.2645	0.7288	9.5263	2.3884	0.2294	-0.7634	0.0468	2350117.1875	3509014446.6519	3509012096.5347	0.2843	-14.2624	-5.0898	2.9059	9.2232	2.7559	0.2918	-0.6809	0.1789	2350117.1875	9.2138	8.0951	-4.1740	-1.1039	5.0868	-8.2948	-0.7120	1.9286	0.5493	2347441.4062	-0.9243	3.8141	0.3552	0.3458	9.4759	-2.1081	0.3024	-0.7931	-0.2396	0.0000	0.0000
2348535.1562	3.2936	-0.7387	-0.5380	-0.9993	9.4141	2.4352	-0.4171	-0.6641	-0.5662	2350126.9531	-10.0304	-61.6948	99.9407	-3.9527	6.3444	-1.6527	0.2000	-0.7480	-0.4559	2350126.9531	12.1356	-44.7390	-17.5826	7.2968	-2.0221	-8.9507	-0.5151	-0.3500	0.4053	2349609.3750	0.5664	-0.5769	2.2645	0.5006	9.5263	2.7767	0.2294	-0.7634	0.0468	2350126.9531	3509014446.6617	3509012096.5347	-3.8147	-29.6577	-2.0733	2.0452	9.3668	1.5693	0.2980	-0.6915	0.2042	2350126.9531	6.2939	7.8827	-5.8574	-0.8691	5.0835	-8.4587	-0.7280	1.8992	0.5516	2347451.1719	-1.8227	3.8595	0.2699	0.5042	9.6281	-2.1874	0.2839	-0.7644	-0.2304	0.0000	0.0000
2348544.9219	3.2936	-0.7387	-0.5380	-1.1580	9.4905	2.5113	-0.4171	-0.6680	-0.5466	2350136.7187	-11.9581	-81.1629	57.1883	-3.9527	5.9653	-0.5444	0.2000	-0.7480	-0.4559	2350136.7187	12.1356	-44.7390	-17.5826	4.3382	-3.4927	-6.9856	-0.5231	-0.3563	0.4075	2349619.1406	0.5664	-0.5769	2.2645	0.0409	9.5263	3.2445	0.2412	-0.7202	0.0375	2350136.7187	3509014446.6714	3509012096.5347	-3.8147	-29.6577	-2.0733	1.9670	9.4501	2.1215	0.2980	-0.6915	0.2042	2350136.7187	6.2939	7.8827	-5.8574	-1.0283	5.0804	-8.6146	-0.7220	1.9202	0.5869	2347460.9375	-1.8227	3.8595	0.2699	0.3458	9.5524	-2.1089	0.3098	-0.7912	-0.2304	0.0000	0.0000
2348554.6875	3.2936	-0.7387	-0.5380	-1.3985	9.4141	2.3640	-0.3905	-0.6350	-0.5510	2350146.4844	-11.9581	-81.1629	57.1883	-3.0771	5.8084	-0.6199	0.1865	-0.7422	-0.4430	2350146.4844	12.1356	-44.7390	-17.5826	3.8710	-3.8855	-7.0539	-0.5231	-0.3563	0.4075	2349628.9062	0.5664	-0.5769	2.2645	0.0409	9.4499	3.2453	0.2353	-0.7428	0.0141	2350146.4844	3509014446.6812	3509012096.5347	-3.8147	-29.6577	-2.0733	1.9670	9.3684	1.7273	0.3000	-0.7064	0.2084	2350146.4844	6.2939	7.8827	-5.8574	-0.9479	5.3915	-8.4632	-0.7220	1.9202	0.5869	2347470.7031	-1.8227	3.8595	0.2699	0.4254	9.5524	-2.1089	0.2839	-0.7912	-0.2350	0.0000	0.0000
2348564.4531	3.6122	2.7255	-1.7449	-1.2399	9.4141	2.2872	-0.4000	-0.6427	-0.5510	2350156.2500	-11.9581	-81.1629	57.1883	-2.3607	4.4740	-1.3794	0.1827	-0.7480	-0.4645	2350156.2500	12.1356	-44.7390	-17.5826	4.0268	-3.5710	-6.9817	-0.5392	-0.3646	0.4207	2349638.6719	0.7194	-2.7358	7.9563	-0.3491	9.4499	2.9404	0.2412	-0.7160	0.0422	2350156.2500	3509014446.6909	3509012096.5347	-3.8147	-29.6577	-2.0733	2.3582	9.3708	1.9643	0.2837	-0.6957	0.1726	2350156.2500	4.8866	3.5712	-4.5550	-0.7911	5.4668	-8.5475	-0.7160	1.9013	0.5399	2347480.4687	-3.5033	4.4044	1.0494	0.2662	9.4759	-2.1081	0.3080	-0.7931	-0.2281	0.0000	0.0000
2348574.2187	3.6122	2.7255	-1.7449	-1.2384	9.5668	2.4361	-0.4057	-0.6408	-0.5727	2350166.0156	-11.9581	-81.1629	57.1883	-3.3955	3.2302	-0.8828	0.1962	-0.7305	-0.4538	2350166.0156	13.7623	-15.4930	-69.6555	3.4039	-3.5748	-7.3596	-0.5292	-0.3667	0.4163	2349648.4375	0.7194	-2.7358	7.9563	-0.1192	9.4499	2.7065	0.2412	-0.7160	0.0422	2350166.0156	3509014446.7007	3509012096.5347	-2.6993	-20.5905	-0.2365	2.0452	9.3763	2.5173	0.2816	-0.6851	0.1958	2350166.0156	4.8866	3.5712	-4.5550	-1.0268	5.4685	-8.4632	-0.7320	1.9307	0.5610	2347490.2344	-3.5033	4.4044	1.0494	0.2662	9.4759	-2.1081	0.2746	-0.7950	-0.2258	0.0000	0.0000
2348583.9844	3.6122	2.7255	-1.7449	-1.2399	9.4141	2.2872	-0.4000	-0.6388	-0.5466	2350175.7812	-10.4408	-72.1863	7.9725	-3.4751	2.6091	-0.5559	0.1962	-0.7305	-0.4538	2350175.7812	13.7623	-15.4930	-69.6555	3.1703	-3.4941	-7.1276	-0.5332	-0.3271	0.4207	2349658.2031	0.7194	-2.7358	7.9563	-0.1951	9.3735	2.8624	0.2471	-0.7160	0.0398	2350175.7812	3509014446.7105	3509012096.5347	-2.6993	-20.5905	-0.2365	1.8888	9.3716	2.0433	0.2816	-0.6851	0.1958	2350175.7812	4.8866	3.5712	-4.5550	-1.0243	5.1654	-8.2184	-0.7480	1.8908	0.5775	2347500.0000	-3.5033	4.4044	1.0494	0.2662	9.4759	-2.1081	0.3080	-0.7739	-0.2235	0.0000	0.0000
2348593.7500	3.6122	2.7255	-1.7449	-1.1602	9.4141	2.2864	-0.4210	-0.6777	-0.5618	2350185.5469	-10.4408	-72.1863	7.9725	-3.7139	2.5326	-0.3971	0.1923	-0.7383	-0.4409	2350185.5469	13.7623	-15.4930	-69.6555	2.0803	-3.7977	-6.1149	-0.5332	-0.3271	0.4207	2349667.9687	8.6025	9.3450	7.8178	-0.0396	9.6790	2.9350	0.2294	-0.7469	0.0094	2350185.5469	3509014446.7202	3509012096.5347	-2.6993	-20.5905	-0.2365	1.9670	9.2978	2.4391	0.2898	-0.7064	0.2126	2350185.5469	4.8866	3.5712	-4.5550	-1.0259	5.3161	-8.3806	-0.7480	1.8908	0.5775	2347509.7656	-3.4430	4.0714	1.0015	0.3466	9.4003	-2.0296	0.2857	-0.7759	-0.2258	0.0000	0.0000
2348603.5156	3.5657	2.4651	-1.6312	-1.1610	9.5668	2.2097	-0.4152	-0.6738	-0.5466	2350195.3125	-10.4408	-72.1863	7.9725	-3.6343	2.6122	-0.2414	0.1942	-0.7285	-0.4710	2350195.3125	-30.5125	-5.9226	-88.1531	2.0803	-3.7884	-5.1930	-0.5835	-0.3792	0.4383	2349677.7344	8.6025	9.3450	7.8178	-0.1200	9.5263	2.6285	0.2294	-0.7469	0.0094	2350195.3125	3509014446.7300	3509012096.5347	-3.2939	-20.5998	-0.2673	1.3411	9.4565	2.7536	0.2816	-0.7043	0.1642	2350195.3125	1.4784	-0.9993	-5.1132	-1.1055	5.2376	-8.4570	-0.7040	1.9349	0.5329	2347519.5312	-3.4430	4.0714	1.0015	0.3466	9.6296	-2.0319	0.2968	-0.7759	-0.2281	0.0000	0.0000
2348613.2812	3.5657	2.4651	-1.6312	-1.0001	9.5668	2.3585	-0.4152	-0.6738	-0.5705	2350205.0781	3.4603	-64.3599	-51.0947	-3.5547	2.4538	-0.4741	0.1635	-0.7598	-0.4602	2350205.0781	-30.5125	-5.9226	-88.1531	1.4574	-3.8691	-5.4165	-0.5513	-0.3083	0.4471	2349687.5000	8.6025	9.3450	7.8178	-0.4295	9.5263	2.6316	0.2529	-0.7366	0.0328	2350205.0781	3509014446.7398	3509012096.5347	-3.2939	-20.5998	-0.2673	1.3411	9.6033	1.8830	0.2816	-0.7043	0.1642	2350205.0781	1.4784	-0.9993	-5.1132	-0.9463	5.3177	-8.3026	-0.7440	1.9160	0.5610	2347529.2969	-3.4430	4.0714	1.0015	0.3458	9.4759	-2.1081	0.2857	-0.7893	-0.2304	0.0000	0.0000
2348623.0469	3.5657	2.4651	-1.6312	-1.1587	9.4905	2.4361	-0.4095	-0.6544	-0.5380	2350214.8437	3.4603	-64.3599	-51.0947	-3.0771	1.5150	-0.6912	0.1635	-0.7598	-0.4602	2350214.8437	-30.5125	-5.9226	-88.1531	1.3796	-3.1671	-5.8069	-0.5513	-0.3083	0.4471	2349697.2656	4.3472	-2.8387	18.8471	-0.7375	9.3735	2.7906	0.2549	-0.7305	0.0398	2350214.8437	3509014446.7495	3509012096.5347	-3.2939	-20.5998	-0.2673	1.5758	9.4501	2.1215	0.2735	-0.6957	0.1789	2350214.8437	1.4784	-0.9993	-5.1132	-0.7919	5.2343	-8.6224	-0.7240	1.8971	0.5798	2347539.0625	-3.4430	4.0714	1.0015	0.3451	9.4752	-2.1859	0.3006	-0.7816	-0.2281	0.0000	0.0000
2348632.8125	3.1783	2.1161	-1.5716	-1.0008	9.4905	2.2841	-0.4190	-0.6369	-0.5727	2350224.6094	3.4603	-64.3599	-51.0947	-3.5547	1.2778	-1.0010	0.1577	-0.7461	-0.4538	2350224.6094	-73.2216	10.9719	-87.9067	1.5353	-2.4598	-5.6618	-0.5634	-0.3167	0.4427	2349707.0312	4.3472	-2.8387	18.8471	-1.3535	9.3735	3.1056	0.2333	-0.7243	0.0164	2350224.6094	3509014446.7593	3509012096.5347	-3.4379	-11.5047	-4.0054	1.4976	9.6072	2.2780	0.2735	-0.7319	0.2147	2350224.6094	0.3372	-2.6794	-5.3026	-0.7911	5.2359	-8.5429	-0.7240	1.8971	0.5798	2347548.8281	-2.8165	4.9644	1.2795	0.3458	9.4759	-2.1081	0.3024	-0.7605	-0.2258	0.0000	0.0000
2348642.5781	3.1783	2.1161	-1.5716	-1.0775	9.3377	2.5872	-0.3981	-0.6388	-0.5510	2350234.3750	17.9285	-47.9560	-96.1850	-3.4751	1.5111	-1.0843	0.1385	-0.7480	-0.4796	2350234.3750	-73.2216	10.9719	-87.9067	0.6010	-2.6096	-4.9595	-0.6117	-0.3187	0.4559	2349716.7969	4.3472	-2.8387	18.8471	-1.6622	9.3735	3.1859	0.2333	-0.7243	0.0164	2350234.3750	3509014446.7691	3509012096.5347	-3.4379	-11.5047	-4.0054	1.5758	9.5247	1.8048	0.2796	-0.7170	0.1811	2350234.3750	0.3372	-2.6794	-5.3026	-0.9463	5.1637	-8.2995	-0.7120	1.9223	0.5329	2347558.5937	-2.8165	4.9644	1.2795	0.4231	9.4736	-2.3414	0.3173	-0.8008	-0.2281	0.0000	0.0000
2348652.3437	3.1783	2.1161	-1.5716	-1.0798	9.4141	2.3608	-0.4000	-0.6447	-0.5770	2350244.1406	17.9285	-47.9560	-96.1850	-3.2363	1.6664	-1.1660	0.1192	-0.7754	-0.4860	2350244.1406	-73.2216	10.9719	-87.9067	0.8345	-1.7470	-4.9705	-0.5976	-0.2875	0.4714	2349726.5625	7.1636	-10.1865	36.1080	-1.6630	9.2208	3.1102	0.2451	-0.7202	0.0351	2350244.1406	3509014446.7788	3509012096.5347	-3.4379	-11.5047	-4.0054	0.9499	9.6120	2.7520	0.2796	-0.7170	0.1811	2350244.1406	0.3372	-2.6794	-5.3026	-1.1055	5.0836	-8.4539	-0.7360	1.8845	0.5634	2347568.3594	-2.8165	4.9644	1.2795	0.4247	9.4752	-2.1859	0.3080	-0.7701	-0.2235	0.0000	0.0000
2348662.1094	3.6728	0.9759	-1.6930	-0.9181	9.4905	2.5841	-0.3943	-0.6388	-0.5488	2350253.9062	17.9285	-47.9560	-96.1850	-4.4303	1.2747	-1.3154	0.1192	-0.7754	-0.4860	2350253.9062	-73.2216	10.9719	-87.9067	0.2895	-1.0419	-5.0489	-0.5976	-0.2875	0.4714	2349736.3281	7.1636	-10.1865	36.1080	-1.4331	9.1444	2.8770	0.2725	-0.7263	0.0281	2350253.9062	3509014446.7886	3509012096.5347	-3.6016	-11.3808	-8.1855	1.2628	9.5303	2.3578	0.2776	-0.7021	0.1726	2350253.9062	-0.6933	-6.5392	-6.9010	-1.0259	5.0082	-8.3744	-0.7140	1.9181	0.5892	2347578.1250	-2.2550	4.5406	1.1510	0.5035	9.3215	-2.2621	0.3191	-0.7739	-0.2189	0.0000	0.0000
2348671.8750	3.6728	0.9759	-1.6930	-0.9189	9.4905	2.5089	-0.3981	-0.6524	-0.5770	2350263.6719	46.4645	-52.0010	-129.5491	-4.1119	1.6711	-0.6944	0.0942	-0.7324	-0.4688	2350263.6719	-99.5499	32.3169	-93.6791	-0.4112	-0.1031	-5.2818	-0.6036	-0.3167	0.4714	2349746.0937	7.1636	-10.1865	36.1080	-1.0485	9.0680	2.6424	0.2647	-0.7263	-0.0047	2350263.6719	3509014446.7984	3509012096.5347	-3.6016	-11.3808	-8.1855	1.4193	9.5303	2.3578	0.2878	-0.7511	0.2084	2350263.6719	-0.6933	-6.5392	-6.9010	-1.1047	5.3932	-8.3805	-0.7140	1.9181	0.5892	2347587.8906	-2.2550	4.5406	1.1510	0.3451	9.3987	-2.1851	0.2968	-0.7874	-0.2304	0.0000	0.0000
2348681.6406	3.6728	0.9759	-1.6930	-0.9189	9.4141	2.5096	-0.4076	-0.6369	-0.5401	2350273.4375	46.4645	-52.0010	-129.5491	-3.5547	2.3734	-0.7084	0.0673	-0.7383	-0.5032	2350273.4375	-99.5499	32.3169	-93.6791	-0.6448	0.9934	-5.4441	-0.6519	-0.3208	0.4956	2349755.8594	7.1636	-10.1865	36.1080	-0.8203	9.0680	2.2541	0.2647	-0.7263	-0.0047	2350273.4375	3509014446.8081	3509012096.5347	-3.6016	-11.3808	-8.1855	1.3411	9.6850	2.2772	0.2878	-0.7511	0.2084	2350273.4375	-0.6933	-6.5392	-6.9010	-1.1055	5.0066	-8.4524	-0.7100	1.9076	0.5376	2347597.6562	-2.2550	4.5406	1.1510	0.3451	9.3987	-2.1851	0.3154	-0.8103	-0.2281	0.0000	0.0000
