Thigh_R	Thigh_R	Thigh_R	Thigh_R	Thigh_R	Thigh_R	Thigh_R	Thigh_R	Thigh_R	Thigh_R	Shank_R	Shank_R	Shank_R	Shank_R	Shank_R	Shank_R	Shank_R	Shank_R	Shank_R	Shank_R	Foot_R	Foot_R	Foot_R	Foot_R	Foot_R	Foot_R	Foot_R	Foot_R	Foot_R	Foot_R	Thigh_L	Thigh_L	Thigh_L	Thigh_L	Thigh_L	Thigh_L	Thigh_L	Thigh_L	Thigh_L	Thigh_L	Shank_L	Shank_L	Shank_L	Shank_L	Shank_L	Shank_L	Shank_L	Shank_L	Shank_L	Shank_L	Shank_L	Shank_L	Foot_L	Foot_L	Foot_L	Foot_L	Foot_L	Foot_L	Foot_L	Foot_L	Foot_L	Foot_L	Pelvis	Pelvis	Pelvis	Pelvis	Pelvis	Pelvis	Pelvis	Pelvis	Pelvis	Pelvis	Annotation	Annotation
Timestamp	Gyroscope X	Gyroscope Y	Gyroscope Z	Wide Range Accelerometer X	Wide Range Accelerometer Y	Wide Range Accelerometer Z	Magnetometer X	Magnetometer Y	Magnetometer Z	Timestamp	Gyroscope X	Gyroscope Y	Gyroscope Z	Wide Range Accelerometer X	Wide Range Accelerometer Y	Wide Range Accelerometer Z	Magnetometer X	Magnetometer Y	Magnetometer Z	Timestamp	Gyroscope X	Gyroscope Y	Gyroscope Z	Wide Range Accelerometer X	Wide Range Accelerometer Y	Wide Range Accelerometer Z	Magnetometer X	Magnetometer Y	Magnetometer Z	Timestamp	Gyroscope X	Gyroscope Y	Gyroscope Z	Wide Range Accelerometer X	Wide Range Accelerometer Y	Wide Range Accelerometer Z	Magnetometer X	Magnetometer Y	Magnetometer Z	Timestamp	Sync Timestamp	Offset Timestamp	Gyroscope X	Gyroscope Y	Gyroscope Z	Wide Range Accelerometer X	Wide Range Accelerometer Y	Wide Range Accelerometer Z	Magnetometer X	Magnetometer Y	Magnetometer Z	Timestamp	Gyroscope X	Gyroscope Y	Gyroscope Z	Wide Range Accelerometer X	Wide Range Accelerometer Y	Wide Range Accelerometer Z	Magnetometer X	Magnetometer Y	Magnetometer Z	Timestamp	Gyroscope X	Gyroscope Y	Gyroscope Z	Wide Range Accelerometer X	Wide Range Accelerometer Y	Wide Range Accelerometer Z	Magnetometer X	Magnetometer Y	Magnetometer Z	Pulse	Level
CAL	CAL	CAL	CAL	CAL	CAL	CAL	CAL	CAL	CAL	CAL	CAL	CAL	CAL	CAL	CAL	CAL	CAL	CAL	CAL	CAL	CAL	CAL	CAL	CAL	CAL	CAL	CAL	CAL	CAL	CAL	CAL	CAL	CAL	CAL	CAL	CAL	CAL	CAL	CAL	CAL	CAL	CAL	CAL	CAL	CAL	CAL	CAL	CAL	CAL	CAL	CAL	CAL	CAL	CAL	CAL	CAL	CAL	CAL	CAL	CAL	CAL	CAL	CAL	CAL	CAL	CAL	CAL	CAL	CAL	CAL	CAL	Pulse	Level
mSecs	deg/sec	deg/sec	deg/sec	m/(sec^2)	m/(sec^2)	m/(sec^2)	local	local	local	mSecs	deg/sec	deg/sec	deg/sec	m/(sec^2)	m/(sec^2)	m/(sec^2)	local	local	local	mSecs	deg/sec	deg/sec	deg/sec	m/(sec^2)	m/(sec^2)	m/(sec^2)	local	local	local	mSecs	deg/sec	deg/sec	deg/sec	m/(sec^2)	m/(sec^2)	m/(sec^2)	local	local	local	mSecs	secs	secs	deg/sec	deg/sec	deg/sec	m/(sec^2)	m/(sec^2)	m/(sec^2)	local	local	local	mSecs	deg/sec	deg/sec	deg/sec	m/(sec^2)	m/(sec^2)	m/(sec^2)	local	local	local	mSecs	deg/sec	deg/sec	deg/sec	m/(sec^2)	m/(sec^2)	m/(sec^2)	local	local	local	Boolean	Boolean
242031.2500	0.9029	20.3960	-8.1834	-1.4639	9.1850	3.7959	-0.3143	-0.5592	-0.7462	242031.2500	-1.0566	2.9906	-0.0441	0.5846	9.7976	0.2439	-0.2654	-0.6680	-0.4301	242031.2500	-0.6044	0.7342	-0.3667	-0.7226	4.2549	-8.7028	-0.3501	-0.0646	0.6211	242031.2500	0.3980	0.1724	5.8530	-0.1169	9.5263	2.9373	0.2490	-0.6584	0.1358	242031.2500	3509012338.6490	3509012096.6177	1.1453	4.3138	-5.8383	2.2017	9.5160	0.9357	0.2694	-0.6298	0.3642	242031.2500	0.6303	-0.0722	-0.9648	-0.0764	5.8626	-8.0125	-0.8340	1.7059	0.5516	242031.2500	5.1929	-0.4692	-2.4656	0.0329	9.6343	-1.5654	0.2931	-0.7701	-0.3249	0.0000	0.0000
242041.0156	-3.5646	10.3762	-4.7348	-1.4661	9.0322	3.5718	-0.3105	-0.5534	-0.7679	242041.0156	-1.0566	2.9906	-0.0441	0.7438	9.6431	0.4042	-0.2731	-0.6738	-0.4538	242041.0156	-0.7504	0.2266	-0.2183	-0.7226	4.1772	-8.6252	-0.3561	-0.0813	0.6123	242041.0156	0.3980	0.1724	5.8530	-0.1928	9.5263	3.0924	0.2333	-0.6872	0.1499	242041.0156	3509012338.6588	3509012096.6177	1.1453	4.3138	-5.8383	1.8888	9.5938	0.9349	0.2592	-0.6362	0.4042	242041.0156	0.2918	-0.0430	-0.4741	0.1599	6.0165	-8.0203	-0.8600	1.7164	0.5728	242041.0156	5.1929	-0.4692	-2.4656	0.1125	9.6343	-1.5654	0.2931	-0.7567	-0.3226	0.0000	0.0000
242050.7812	-3.5646	10.3762	-4.7348	-1.3857	8.8795	3.6477	-0.3181	-0.5631	-0.7375	242050.7812	-1.0566	2.9906	-0.0441	0.5050	9.7187	0.1668	-0.2673	-0.6621	-0.4323	242050.7812	-0.7504	0.2266	-0.2183	-0.8005	4.3333	-8.7028	-0.3561	-0.0813	0.6123	242050.7812	0.3980	0.1724	5.8530	-0.3460	9.3735	3.2499	0.2333	-0.6872	0.1499	242050.7812	3509012338.6685	3509012096.6177	1.1453	4.3138	-5.8383	1.6540	9.6723	1.0132	0.2673	-0.6489	0.3832	242050.7812	0.2918	-0.0430	-0.4741	0.0023	6.0166	-8.0171	-0.8600	1.7164	0.5728	242050.7812	5.1929	-0.4692	-2.4656	-0.0460	9.6351	-1.4876	0.2820	-0.7720	-0.3272	0.0000	0.0000
242060.5469	-3.5646	10.3762	-4.7348	-0.9857	8.8031	3.7949	-0.3105	-0.5689	-0.7657	242060.5469	-1.0208	-1.8939	0.2080	0.3458	9.7983	0.3225	-0.2615	-0.6641	-0.4344	242060.5469	-0.7504	0.2266	-0.2183	-0.8005	4.2557	-8.6252	-0.3763	-0.0771	0.6344	242060.5469	0.3980	0.1724	5.8530	-0.2694	9.2971	3.1727	0.2431	-0.7202	0.1405	242060.5469	3509012338.6783	3509012096.6177	1.1785	-0.5926	-2.5178	1.6540	9.7477	0.7754	0.2673	-0.6489	0.3832	242060.5469	0.2918	-0.0430	-0.4741	0.0031	6.0181	-7.9376	-0.8140	1.7101	0.5423	242060.5469	4.6943	0.1059	-3.6428	-0.2052	9.7115	-1.4884	0.3043	-0.7969	-0.3226	0.0000	0.0000
242070.3125	-1.1575	6.4399	-1.7936	-1.1451	8.9558	3.7950	-0.3143	-0.5398	-0.7397	242070.3125	-1.0208	-1.8939	0.2080	0.1866	9.7991	0.4011	-0.2615	-0.6641	-0.4344	242070.3125	-0.3896	0.1482	-0.3139	-0.8005	4.3341	-8.6260	-0.3642	-0.0708	0.6189	242070.3125	1.8827	7.2624	2.0350	-0.1920	9.4499	3.1704	0.2471	-0.6605	0.1218	242070.3125	3509012338.6881	3509012096.6177	1.1785	-0.5926	-2.5178	1.6540	9.6684	0.6181	0.2633	-0.6234	0.3621	242070.3125	-0.4570	0.0314	-0.4374	0.0820	5.9411	-7.9376	-0.8400	1.7353	0.5540	242070.3125	4.6943	0.1059	-3.6428	-0.0483	9.8621	-1.7232	0.2764	-0.7950	-0.3295	0.0000	0.0000
242080.0781	-1.1575	6.4399	-1.7936	-1.0647	9.0322	3.8686	-0.3086	-0.5379	-0.7592	242080.0781	-1.0208	-1.8939	0.2080	0.1866	9.8007	0.5583	-0.2558	-0.6602	-0.4538	242080.0781	-0.3896	0.1482	-0.3139	-0.8005	4.2557	-8.6252	-0.3642	-0.0708	0.6189	242080.0781	1.8827	7.2624	2.0350	-0.1904	9.3735	3.3255	0.2471	-0.6811	0.1569	242080.0781	3509012338.6978	3509012096.6177	1.1785	-0.5926	-2.5178	1.4976	9.6692	0.6971	0.2633	-0.6362	0.3895	242080.0781	-0.4570	0.0314	-0.4374	0.0039	5.9427	-7.8565	-0.8360	1.7374	0.5822	242080.0781	4.6943	0.1059	-3.6428	-0.1248	9.7888	-1.4114	0.2894	-0.7912	-0.3295	0.0000	0.0000
242089.8437	-1.1575	6.4399	-1.7936	-1.0639	8.9558	3.9446	-0.3124	-0.5320	-0.7289	242089.8437	-1.0246	2.5020	-0.4426	0.0274	9.7999	0.4797	-0.2769	-0.6445	-0.4323	242089.8437	-0.3896	0.1482	-0.3139	-0.7226	4.4125	-8.6275	-0.3682	-0.1000	0.6079	242089.8437	1.8827	7.2624	2.0350	-0.2694	9.3735	3.1719	0.2471	-0.6811	0.1569	242089.8437	3509012338.7076	3509012096.6177	0.6632	1.2772	-0.7224	1.4193	9.6692	0.6971	0.2673	-0.6404	0.3916	242089.8437	-0.4570	0.0314	-0.4374	0.0827	6.0197	-7.8596	-0.8360	1.7374	0.5822	242089.8437	3.1425	2.3157	-3.6717	-0.2856	9.8637	-1.5677	0.2783	-0.7510	-0.3203	0.0000	0.0000
242099.6094	-0.4612	-8.2648	1.0962	-1.1444	9.0322	3.8694	-0.3105	-0.5417	-0.7679	242099.6094	-1.0246	2.5020	-0.4426	0.1866	9.7211	0.4026	-0.2596	-0.6777	-0.4366	242099.6094	-0.7091	0.0293	-0.3423	-0.6448	4.4901	-8.7059	-0.3823	-0.1354	0.6300	242099.6094	0.7347	10.2322	-0.9947	-0.2725	9.4499	2.8624	0.2353	-0.7160	0.1475	242099.6094	3509012338.7173	3509012096.6177	0.6632	1.2772	-0.7224	1.4193	9.8247	0.6956	0.2673	-0.6404	0.3916	242099.6094	-0.7698	-0.1060	-0.5018	0.2404	5.8657	-7.8597	-0.8000	1.7269	0.5446	242099.6094	3.1425	2.3157	-3.6717	-0.3652	9.7872	-1.5669	0.3117	-0.7490	-0.3226	0.0000	0.0000
242109.3750	-0.4612	-8.2648	1.0962	-1.3045	9.1086	3.7950	-0.3086	-0.5301	-0.7354	242109.3750	-1.0246	2.5020	-0.4426	0.1866	9.7999	0.4797	-0.2596	-0.6777	-0.4366	242109.3750	-0.7091	0.0293	-0.3423	-0.6448	4.3333	-8.7044	-0.3662	-0.0896	0.6189	242109.3750	0.7347	10.2322	-0.9947	-0.2733	9.6026	2.7837	0.2490	-0.6852	0.1194	242109.3750	3509012338.7271	3509012096.6177	0.6632	1.2772	-0.7224	1.4193	9.7469	0.6964	0.2653	-0.6170	0.3621	242109.3750	-0.7698	-0.1060	-0.5018	0.0016	5.9380	-8.0952	-0.8340	1.7332	0.5657	242109.3750	3.1425	2.3157	-3.6717	-0.2052	9.7880	-1.4891	0.2876	-0.7663	-0.3249	0.0000	0.0000
242119.1406	-0.4612	-8.2648	1.0962	-1.5451	9.1850	3.6463	-0.3162	-0.5748	-0.7657	242119.1406	-2.5946	4.6730	-1.3251	0.1866	9.7999	0.4797	-0.2615	-0.6953	-0.4624	242119.1406	-0.7091	0.0293	-0.3423	-0.7226	4.2549	-8.7028	-0.3662	-0.0896	0.6189	242119.1406	0.7347	10.2322	-0.9947	-0.4249	9.5263	3.0948	0.2490	-0.6852	0.1194	242119.1406	3509012338.7369	3509012096.6177	0.0019	0.7030	0.1908	1.5758	9.7469	0.6964	0.2429	-0.6234	0.3832	242119.1406	-0.7698	-0.1060	-0.5018	0.1608	5.8641	-7.9377	-0.8340	1.7038	0.5657	242119.1406	2.2660	5.7212	-1.5757	-0.2840	9.7888	-1.4114	0.3006	-0.7912	-0.3318	0.0000	0.0000
242128.9062	-2.2592	-6.7586	0.5568	-1.7037	9.0322	3.7246	-0.3276	-0.5650	-0.7397	242128.9062	-2.5946	4.6730	-1.3251	0.4254	9.7983	0.3225	-0.2692	-0.6699	-0.4323	242128.9062	-0.7091	0.0293	-0.3423	-0.6448	4.0988	-8.6252	-0.3561	-0.0854	0.6035	242128.9062	1.1786	5.1493	-2.2472	-0.5031	9.5263	3.0183	0.2431	-0.6770	0.1499	242128.9062	3509012338.7466	3509012096.6177	0.0019	0.7030	0.1908	1.4193	9.6692	0.6971	0.2429	-0.6234	0.3832	242128.9062	-0.7698	-0.1060	-0.5018	0.0820	5.9411	-7.9376	-0.8300	1.7038	0.5775	242128.9062	2.2660	5.7212	-1.5757	-0.2067	9.7864	-1.6446	0.2801	-0.7682	-0.3180	0.0000	0.0000
242138.6719	-2.2592	-6.7586	0.5568	-1.7030	8.9558	3.8006	-0.3181	-0.5748	-0.7722	242138.6719	-2.5946	4.6730	-1.3251	0.3458	9.7991	0.4011	-0.2692	-0.6699	-0.4323	242138.6719	-0.2255	0.0509	-0.1341	-0.7226	4.3333	-8.7036	-0.3722	-0.1083	0.6233	242138.6719	1.1786	5.1493	-2.2472	-0.4257	9.3735	3.0191	0.2373	-0.6893	0.1569	242138.6719	3509012338.7564	3509012096.6177	0.0019	0.7030	0.1908	1.4193	9.6676	0.5391	0.2653	-0.6277	0.3958	242138.6719	0.0608	-0.1645	-0.1655	0.0032	5.8642	-7.9345	-0.8040	1.7563	0.5493	242138.6719	2.2660	5.7212	-1.5757	-0.2067	9.6335	-1.6431	0.3043	-0.7663	-0.3341	0.0000	0.0000
242148.4375	-2.2592	-6.7586	0.5568	-1.9413	9.0322	3.8774	-0.3200	-0.5689	-0.7440	242148.4375	-2.5946	4.6730	-1.3251	0.2662	9.7195	0.2454	-0.2731	-0.6641	-0.4387	242148.4375	-0.2255	0.0509	-0.1341	-0.8005	4.3333	-8.7028	-0.3722	-0.1083	0.6233	242148.4375	1.1786	5.1493	-2.2472	-0.5812	9.5263	2.9419	0.2353	-0.6934	0.1335	242148.4375	3509012338.7662	3509012096.6177	0.0019	0.7030	0.1908	1.2628	9.6684	0.6181	0.2653	-0.6000	0.3642	242148.4375	0.0608	-0.1645	-0.1655	0.0024	5.8626	-8.0141	-0.8380	1.7269	0.5587	242148.4375	2.2660	5.7212	-1.5757	-0.2036	9.7131	-1.3329	0.2913	-0.7720	-0.3341	0.0000	0.0000
242158.2031	-2.2592	-6.7586	0.5568	-1.8631	8.9558	3.7270	-0.3105	-0.5359	-0.7570	242158.2031	-2.0389	2.7970	-2.0552	0.4254	9.7203	0.3240	-0.2538	-0.6641	-0.4495	242158.2031	-0.2255	0.0509	-0.1341	-0.8005	4.2549	-8.7020	-0.3783	-0.1229	0.6211	242158.2031	0.6888	0.8441	-3.5122	-0.5812	9.4499	2.9427	0.2353	-0.6934	0.1335	242158.2031	3509012338.7759	3509012096.6177	-0.4188	1.4867	0.7807	1.4193	9.5930	0.8559	0.2673	-0.6021	0.3832	242158.2031	0.0608	-0.1645	-0.1655	-0.0748	5.8658	-7.8534	-0.8380	1.7269	0.5587	242158.2031	0.5322	8.0672	-0.0213	-0.2052	9.6351	-1.4876	0.3043	-0.7874	-0.3318	0.0000	0.0000
242167.9687	0.0245	6.2287	-1.8894	-1.7796	8.8795	4.1029	-0.3181	-0.5301	-0.7397	242167.9687	-2.0389	2.7970	-2.0552	0.1866	9.7195	0.2454	-0.2750	-0.6855	-0.4323	242167.9687	-0.4408	0.6072	-0.2328	-0.7226	4.1780	-8.5484	-0.3541	-0.0583	0.6035	242167.9687	0.6888	0.8441	-3.5122	-0.6578	9.5263	3.0199	0.2431	-0.7016	0.1546	242167.9687	3509012338.7857	3509012096.6177	-0.4188	1.4867	0.7807	1.1064	9.5914	0.6979	0.2673	-0.6021	0.3832	242167.9687	0.2182	-0.5698	-0.0309	0.0820	5.9411	-7.9376	-0.8200	1.7374	0.5728	242167.9687	0.5322	8.0672	-0.0213	-0.2863	9.6335	-1.6431	0.2709	-0.7989	-0.3203	0.0000	0.0000
242177.7344	0.0245	6.2287	-1.8894	-1.7007	8.7267	4.0284	-0.3162	-0.5379	-0.7592	242177.7344	-2.0389	2.7970	-2.0552	0.5050	9.7203	0.3240	-0.2750	-0.6855	-0.4323	242177.7344	-0.4408	0.6072	-0.2328	-0.7226	4.1772	-8.6252	-0.3924	-0.1187	0.6256	242177.7344	0.6888	0.8441	-3.5122	-0.7344	9.4499	3.0986	0.2294	-0.6852	0.1546	242177.7344	3509012338.7955	3509012096.6177	-0.4188	1.4867	0.7807	1.1064	9.6692	0.6971	0.2673	-0.6234	0.4021	242177.7344	0.2182	-0.5698	-0.0309	0.0032	5.8642	-7.9345	-0.8200	1.7290	0.5399	242177.7344	0.5322	8.0672	-0.0213	-0.2863	9.5571	-1.6424	0.2801	-0.7720	-0.3226	0.0000	0.0000
242187.5000	0.0245	6.2287	-1.8894	-1.7804	8.7267	4.0292	-0.3143	-0.5262	-0.7332	242187.5000	-1.4687	1.5452	-2.2661	0.4254	9.7187	0.1668	-0.2462	-0.6406	-0.4387	242187.5000	-0.4408	0.6072	-0.2328	-0.6448	4.3341	-8.6275	-0.3924	-0.1187	0.6256	242187.5000	0.6888	0.8441	-3.5122	-0.7337	9.4499	3.1758	0.2255	-0.6872	0.1382	242187.5000	3509012338.8052	3509012096.6177	-0.7575	2.3918	0.4375	1.2628	9.6692	0.6971	0.2633	-0.6021	0.3726	242187.5000	0.2182	-0.5698	-0.0309	0.0827	5.9427	-7.8581	-0.8320	1.7290	0.5681	242187.5000	-0.2041	10.0045	0.8871	-0.2067	9.7100	-1.6439	0.2801	-0.7854	-0.3226	0.0000	0.0000
242197.2656	1.8372	5.5508	-2.5651	-1.7052	9.0322	3.5742	-0.3200	-0.5767	-0.7744	242197.2656	-1.4687	1.5452	-2.2661	0.3458	9.7211	0.4026	-0.2712	-0.6875	-0.4559	242197.2656	-0.5862	0.1318	-0.1601	-0.7226	4.4110	-8.7812	-0.3642	-0.0708	0.6432	242197.2656	0.5817	6.7566	-4.6827	-0.6571	9.4499	3.0978	0.2255	-0.6872	0.1382	242197.2656	3509012338.8150	3509012096.6177	-0.7575	2.3918	0.4375	1.1846	9.6692	0.6971	0.2633	-0.6021	0.3726	242197.2656	0.4026	-0.2342	-0.3253	0.0812	5.9395	-8.0172	-0.8320	1.7290	0.5681	242197.2656	-0.2041	10.0045	0.8871	-0.2863	9.6335	-1.6431	0.3024	-0.7797	-0.3249	0.0000	0.0000
242207.0312	1.8372	5.5508	-2.5651	-1.7842	8.9558	3.6510	-0.3238	-0.5728	-0.7505	242207.0312	-1.4687	1.5452	-2.2661	0.4254	9.7203	0.3240	-0.2673	-0.6836	-0.4323	242207.0312	-0.5862	0.1318	-0.1601	-0.6448	4.3333	-8.7044	-0.3541	-0.0688	0.6101	242207.0312	0.5817	6.7566	-4.6827	-0.4265	9.5263	2.9404	0.2255	-0.7160	0.1546	242207.0312	3509012338.8248	3509012096.6177	-0.7575	2.3918	0.4375	1.2628	9.6684	0.6181	0.2551	-0.6000	0.3747	242207.0312	0.4026	-0.2342	-0.3253	0.0031	6.0181	-7.9376	-0.8260	1.7311	0.5704	242207.0312	-0.2041	10.0045	0.8871	-0.1271	9.5571	-1.6424	0.2820	-0.7586	-0.3226	0.0000	0.0000
242216.7969	1.8372	5.5508	-2.5651	-1.7037	8.8795	3.7261	-0.3410	-0.5767	-0.7701	242216.7969	-1.4050	1.0393	-2.6204	0.1070	9.7991	0.4011	-0.2673	-0.6836	-0.4323	242216.7969	-0.5862	0.1318	-0.1601	-0.7226	4.4125	-8.6275	-0.3541	-0.0688	0.6101	242216.7969	0.5817	6.7566	-4.6827	-0.5031	9.3735	3.0199	0.2373	-0.7016	0.1499	242216.7969	3509012338.8345	3509012096.6177	-1.1987	4.3067	0.5026	1.3411	9.6684	0.6181	0.2510	-0.6596	0.3874	242216.7969	0.4026	-0.2342	-0.3253	-0.0764	5.9396	-8.0140	-0.8020	1.7374	0.5376	242216.7969	4.0929	12.0781	1.6244	-0.1271	9.5571	-1.6424	0.2968	-0.7586	-0.3249	0.0000	0.0000
242226.5625	0.7456	6.1908	-2.7843	-1.7015	9.0322	3.9502	-0.3314	-0.5728	-0.7527	242226.5625	-1.4050	1.0393	-2.6204	0.2662	9.7211	0.4026	-0.2769	-0.6836	-0.4366	242226.5625	-0.5862	0.1318	-0.1601	-0.6448	4.2564	-8.5499	-0.3903	-0.0833	0.6256	242226.5625	3.3522	17.7971	-5.7763	-0.3452	9.4499	3.3263	0.2373	-0.6914	0.1499	242226.5625	3509012338.8443	3509012096.6177	-1.1987	4.3067	0.5026	1.4193	9.6716	0.9341	0.2571	-0.6085	0.3684	242226.5625	0.3729	-0.2983	-0.1735	0.0820	5.8641	-7.9361	-0.8480	1.7332	0.5587	242226.5625	4.0929	12.0781	1.6244	-0.0444	9.6366	-1.3321	0.3043	-0.7433	-0.3134	0.0000	0.0000
242236.3281	0.7456	6.1908	-2.7843	-1.7030	9.0322	3.7998	-0.3410	-0.5806	-0.7549	242236.3281	-1.4050	1.0393	-2.6204	0.2662	9.7976	0.2439	-0.2692	-0.6719	-0.4495	242236.3281	-1.2559	-0.1362	-0.2321	-0.8005	4.3341	-8.6260	-0.3763	-0.0792	0.6366	242236.3281	3.3522	17.7971	-5.7763	-0.2663	9.4499	3.4799	0.2333	-0.6914	0.1101	242236.3281	3509012338.8541	3509012096.6177	-1.1987	4.3067	0.5026	1.4976	9.6716	0.9341	0.2571	-0.6085	0.3684	242236.3281	0.3729	-0.2983	-0.1735	0.0023	6.0166	-8.0171	-0.8480	1.7332	0.5587	242236.3281	4.0929	12.0781	1.6244	-0.0468	9.7107	-1.5661	0.2968	-0.7854	-0.3249	0.0000	0.0000
242246.0937	0.7456	6.1908	-2.7843	-1.6233	8.9558	3.7998	-0.3143	-0.5320	-0.7354	242246.0937	-0.9553	0.3908	-3.3954	0.3458	9.6415	0.2470	-0.2654	-0.6660	-0.4301	242246.0937	-1.2559	-0.1362	-0.2321	-0.8005	4.2549	-8.7020	-0.3622	-0.0958	0.6079	242246.0937	3.3522	17.7971	-5.7763	-0.3468	9.4499	3.1719	0.2176	-0.6790	0.1546	242246.0937	3509012338.8638	3509012096.6177	-1.2689	5.6370	1.0979	1.4193	9.6692	0.6971	0.2510	-0.5894	0.3726	242246.0937	0.3729	-0.2983	-0.1735	0.0040	5.8658	-7.8550	-0.8260	1.7122	0.5681	242246.0937	0.9289	12.6078	3.1451	-0.1256	9.6351	-1.4876	0.2783	-0.7682	-0.3272	0.0000	0.0000
242255.8594	2.0419	6.8222	-3.7502	-1.6218	8.9558	3.9502	-0.3124	-0.5398	-0.7636	242255.8594	-0.9553	0.3908	-3.3954	0.2662	9.7991	0.4011	-0.2654	-0.6660	-0.4301	242255.8594	-1.2559	-0.1362	-0.2321	-0.7226	4.3341	-8.6268	-0.3622	-0.0958	0.6079	242255.8594	1.3776	16.3802	-6.8012	-0.3483	9.5263	3.0168	0.2137	-0.7305	0.1616	242255.8594	3509012338.8736	3509012096.6177	-1.2689	5.6370	1.0979	1.4193	9.6700	0.7761	0.2469	-0.6277	0.4000	242255.8594	0.3729	-0.2983	-0.1735	-0.0749	5.9428	-7.8549	-0.8080	1.7311	0.5329	242255.8594	0.9289	12.6078	3.1451	-0.0475	9.7100	-1.6439	0.3043	-0.8065	-0.3272	0.0000	0.0000
242265.6250	2.0419	6.8222	-3.7502	-1.6218	8.8795	3.9509	-0.3067	-0.5340	-0.7505	242265.6250	-0.9553	0.3908	-3.3954	0.3458	9.8772	0.3995	-0.2538	-0.6484	-0.4323	242265.6250	-1.4550	0.4792	-0.2239	-0.8005	4.2557	-8.6252	-0.3783	-0.0937	0.6167	242265.6250	1.3776	16.3802	-6.8012	-0.3498	9.4499	2.8632	0.2137	-0.7305	0.1616	242265.6250	3509012338.8834	3509012096.6177	-1.2689	5.6370	1.0979	1.4193	9.5898	0.5399	0.2469	-0.6277	0.4000	242265.6250	-0.1771	0.3726	-0.5394	0.0032	5.8642	-7.9345	-0.8400	1.7290	0.5751	242265.6250	0.9289	12.6078	3.1451	-0.0467	9.6343	-1.5654	0.2894	-0.7854	-0.3134	0.0000	0.0000
242275.3906	2.0419	6.8222	-3.7502	-1.5428	9.1086	3.8726	-0.3143	-0.5417	-0.7440	242275.3906	-0.9553	0.3908	-3.3954	0.2662	9.8772	0.3995	-0.2712	-0.6914	-0.4495	242275.3906	-1.4550	0.4792	-0.2239	-0.8005	4.2549	-8.7020	-0.3783	-0.1104	0.6256	242275.3906	1.3776	16.3802	-6.8012	-0.1959	9.5263	2.7837	0.2314	-0.6687	0.1311	242275.3906	3509012338.8931	3509012096.6177	-0.3406	5.5208	0.9895	1.4193	9.5891	0.4609	0.2490	-0.6383	0.3832	242275.3906	-0.1771	0.3726	-0.5394	0.0820	5.8641	-7.9361	-0.8400	1.7290	0.5751	242275.3906	0.9289	12.6078	3.1451	-0.0460	9.6351	-1.4876	0.2839	-0.7605	-0.3226	0.0000	0.0000
242285.1562	2.0419	6.8222	-3.7502	-1.5428	8.8031	3.8757	-0.3352	-0.5670	-0.7440	242285.1562	-0.8634	0.7856	-3.1375	0.1866	9.6439	0.4828	-0.2712	-0.6387	-0.4280	242285.1562	-1.4550	0.4792	-0.2239	-0.8783	4.2549	-8.7012	-0.3783	-0.1104	0.6256	242285.1562	-0.8113	17.7986	-7.0677	-0.1974	9.4499	2.6300	0.2176	-0.7407	0.1569	242285.1562	3509012338.9029	3509012096.6177	-0.3406	5.5208	0.9895	1.5758	9.7454	0.5383	0.2469	-0.6170	0.3705	242285.1562	-0.1771	0.3726	-0.5394	0.0796	5.8594	-8.1747	-0.8140	1.7059	0.5704	242285.1562	0.8807	13.3949	2.8895	-0.0475	9.7100	-1.6439	0.3080	-0.7682	-0.3226	0.0000	0.0000
242294.9219	1.6651	0.7965	-2.6317	-1.7037	8.9558	3.7254	-0.3200	-0.5806	-0.7657	242294.9219	-0.8634	0.7856	-3.1375	0.2662	9.7219	0.4812	-0.2615	-0.6387	-0.4280	242294.9219	-1.1232	1.2180	-0.5240	-0.7226	4.1757	-8.7788	-0.3561	-0.0917	0.6101	242294.9219	-0.8113	17.7986	-7.0677	-0.2748	9.4499	2.6308	0.2216	-0.7222	0.1616	242294.9219	3509012338.9127	3509012096.6177	-0.3406	5.5208	0.9895	1.3411	9.8239	0.6166	0.2531	-0.6383	0.4105	242294.9219	-0.2501	-0.0648	-0.0369	0.0827	5.9427	-7.8581	-0.8180	1.7269	0.5329	242294.9219	0.8807	13.3949	2.8895	0.0321	9.6335	-1.6431	0.3173	-0.7548	-0.3180	0.0000	0.0000
242304.6875	1.6651	0.7965	-2.6317	-1.4631	8.8795	3.8741	-0.3314	-0.5689	-0.7614	242304.6875	-0.8634	0.7856	-3.1375	0.4254	9.7211	0.4026	-0.2635	-0.6523	-0.4366	242304.6875	-1.1232	1.2180	-0.5240	-0.8783	4.3326	-8.7788	-0.3561	-0.0979	0.6035	242304.6875	-0.8113	17.7986	-7.0677	-0.1177	9.5263	2.8601	0.2216	-0.7222	0.1616	242304.6875	3509012338.9224	3509012096.6177	-0.3406	5.5208	0.9895	1.1846	9.6700	0.7761	0.2531	-0.6383	0.4105	242304.6875	-0.2501	-0.0648	-0.0369	0.0820	5.9411	-7.9376	-0.8460	1.6933	0.5751	242304.6875	0.8807	13.3949	2.8895	-0.0475	9.7100	-1.6439	0.3117	-0.7395	-0.3134	0.0000	0.0000
242314.4531	1.6651	0.7965	-2.6317	-1.4639	8.9558	3.7982	-0.3410	-0.5786	-0.7505	242314.4531	-1.6265	7.4309	-2.8367	0.5846	9.7219	0.4812	-0.2635	-0.6953	-0.4559	242314.4531	-1.1232	1.2180	-0.5240	-0.7226	4.2549	-8.7028	-0.3722	-0.0958	0.6278	242314.4531	-0.8113	17.7986	-7.0677	-0.1935	9.3735	3.0168	0.2235	-0.6955	0.1288	242314.4531	3509012338.9322	3509012096.6177	-0.1593	2.2636	0.8344	0.8716	9.6676	0.5391	0.2592	-0.6511	0.3916	242314.4531	-0.2501	-0.0648	-0.0369	0.0820	5.9411	-7.9376	-0.8460	1.6933	0.5751	242314.4531	-0.5396	13.7733	2.3250	-0.0468	9.7107	-1.5661	0.3061	-0.7663	-0.3226	0.0000	0.0000
242324.2187	2.0994	3.9833	-1.7675	-1.4639	8.9558	3.7982	-0.3105	-0.5262	-0.7354	242324.2187	-1.6265	7.4309	-2.8367	0.7438	9.7211	0.4026	-0.2635	-0.6953	-0.4559	242324.2187	-1.2197	0.9221	-0.2523	-0.6448	4.2549	-8.7036	-0.3722	-0.0958	0.6278	242324.2187	0.7807	7.3507	-4.8719	-0.3483	9.3735	3.0183	0.2157	-0.6811	0.1522	242324.2187	3509012338.9420	3509012096.6177	-0.1593	2.2636	0.8344	1.1064	9.6692	0.6971	0.2633	-0.6298	0.3684	242324.2187	-0.2497	0.0250	0.0072	-0.0749	6.0198	-7.8565	-0.8300	1.7479	0.5728	242324.2187	-0.5396	13.7733	2.3250	0.1125	9.6343	-1.5654	0.3247	-0.7701	-0.3157	0.0000	0.0000
242333.9844	2.0994	3.9833	-1.7675	-1.5436	9.1086	3.7974	-0.3257	-0.5320	-0.7505	242333.9844	-1.6265	7.4309	-2.8367	0.7438	9.7991	0.4011	-0.2596	-0.6445	-0.4237	242333.9844	-1.2197	0.9221	-0.2523	-0.7226	4.3325	-8.7804	-0.3561	-0.0563	0.6123	242333.9844	0.7807	7.3507	-4.8719	-0.3460	9.2971	3.2507	0.2157	-0.6975	0.1710	242333.9844	3509012338.9517	3509012096.6177	-0.1593	2.2636	0.8344	1.1064	9.6700	0.7761	0.2633	-0.6298	0.3684	242333.9844	-0.2497	0.0250	0.0072	0.0024	5.8626	-8.0141	-0.8260	1.7269	0.5376	242333.9844	-0.5396	13.7733	2.3250	0.0329	9.6343	-1.5654	0.2950	-0.7720	-0.3111	0.0000	0.0000
242343.7500	2.0994	3.9833	-1.7675	-1.6225	9.1086	3.8734	-0.3181	-0.5204	-0.7570	242343.7500	-1.0335	6.4527	-2.0488	0.6642	9.7976	0.2439	-0.2635	-0.6426	-0.4409	242343.7500	-1.2197	0.9221	-0.2523	-0.8005	4.2549	-8.7020	-0.3602	-0.0625	0.6079	242343.7500	0.7807	7.3507	-4.8719	-0.2678	9.3735	3.3263	0.2157	-0.6975	0.1710	242343.7500	3509012338.9615	3509012096.6177	-0.6227	2.9101	0.1976	1.3411	9.6708	0.8551	0.2551	-0.6298	0.3979	242343.7500	-0.2497	0.0250	0.0072	0.0032	5.7102	-7.9314	-0.8400	1.7269	0.5822	242343.7500	-0.6049	12.6381	1.8730	0.1117	9.6335	-1.6431	0.3135	-0.7414	-0.3111	0.0000	0.0000
242353.5156	2.5226	12.2178	-3.2089	-1.5436	9.1086	3.7974	-0.3257	-0.5301	-0.7419	242353.5156	-1.0335	6.4527	-2.0488	0.5050	9.7180	0.0882	-0.2577	-0.6875	-0.4602	242353.5156	-1.2197	0.9221	-0.2523	-0.8005	4.1780	-8.5476	-0.3602	-0.0625	0.6079	242353.5156	-0.5970	6.0313	-2.9406	-0.1920	9.3735	3.1712	0.2118	-0.6955	0.1382	242353.5156	3509012338.9713	3509012096.6177	-0.6227	2.9101	0.1976	1.3411	9.7461	0.6174	0.2633	-0.6468	0.4021	242353.5156	-0.2497	0.0250	0.0072	0.0016	5.8610	-8.0936	-0.8400	1.7269	0.5822	242353.5156	-0.6049	12.6381	1.8730	0.1928	9.6351	-1.4876	0.3135	-0.7759	-0.3180	0.0000	0.0000
242363.2812	2.5226	12.2178	-3.2089	-1.3842	9.1086	3.7958	-0.3029	-0.5223	-0.7701	242363.2812	-1.0335	6.4527	-2.0488	0.5050	9.7203	0.3240	-0.2577	-0.6875	-0.4602	242363.2812	-1.0292	0.6295	-0.2875	-0.6448	4.3333	-8.7044	-0.3742	-0.0813	0.6300	242363.2812	-0.5970	6.0313	-2.9406	-0.2717	9.4499	2.9396	0.2216	-0.7037	0.1522	242363.2812	3509012338.9810	3509012096.6177	-0.6227	2.9101	0.1976	1.4193	9.7469	0.6964	0.2633	-0.6085	0.3663	242363.2812	0.1368	0.1878	-0.3666	0.0812	5.9395	-8.0172	-0.8180	1.7080	0.5634	242363.2812	-0.6049	12.6381	1.8730	0.0329	9.6343	-1.5654	0.3173	-0.7874	-0.3157	0.0000	0.0000
242373.0469	2.5226	12.2178	-3.2089	-1.6240	9.0322	3.7238	-0.3257	-0.5592	-0.7614	242373.0469	-0.8250	4.2323	-2.0773	0.5050	9.7203	0.3240	-0.2654	-0.6387	-0.4280	242373.0469	-1.0292	0.6295	-0.2875	-0.8005	4.3333	-8.7028	-0.3662	-0.0813	0.6101	242373.0469	-0.5970	6.0313	-2.9406	-0.2709	9.4499	3.0168	0.2216	-0.7037	0.1522	242373.0469	3509012338.9908	3509012096.6177	-0.0868	1.8807	0.4630	1.6540	9.7477	0.7754	0.2633	-0.6085	0.3663	242373.0469	0.1368	0.1878	-0.3666	0.0820	5.8641	-7.9361	-0.8060	1.7584	0.5329	242373.0469	-1.3264	9.7775	1.2199	0.0352	9.7131	-1.3329	0.2968	-0.7739	-0.3111	0.0000	0.0000
242382.8125	1.4464	8.5771	-5.1377	-1.4624	8.9558	3.9486	-0.3105	-0.5456	-0.7614	242382.8125	-0.8250	4.2323	-2.0773	0.5050	9.6415	0.2470	-0.2769	-0.6699	-0.4430	242382.8125	-1.0292	0.6295	-0.2875	-0.6448	4.2541	-8.7804	-0.3581	-0.0750	0.6145	242382.8125	0.9796	7.5272	-4.1648	-0.1935	9.4499	3.0160	0.2137	-0.6893	0.1686	242382.8125	3509012339.0006	3509012096.6177	-0.0868	1.8807	0.4630	1.5758	9.7485	0.8544	0.2551	-0.6213	0.3832	242382.8125	0.1368	0.1878	-0.3666	0.0015	6.0150	-8.0967	-0.8060	1.7584	0.5329	242382.8125	-1.3264	9.7775	1.2199	-0.1248	9.6358	-1.4098	0.3154	-0.7644	-0.3134	0.0000	0.0000
242392.5781	1.4464	8.5771	-5.1377	-1.5413	8.8031	4.0261	-0.3200	-0.5553	-0.7440	242392.5781	-0.8250	4.2323	-2.0773	0.5846	9.7195	0.2454	-0.2538	-0.6699	-0.4581	242392.5781	-1.0859	0.8144	-0.3003	-0.6448	4.0988	-8.6252	-0.3581	-0.0750	0.6145	242392.5781	0.9796	7.5272	-4.1648	-0.3483	9.5263	3.0168	0.2098	-0.6728	0.1452	242392.5781	3509012339.0103	3509012096.6177	-0.0868	1.8807	0.4630	1.4193	9.6700	0.7761	0.2612	-0.6277	0.4042	242392.5781	-0.0479	0.0506	-0.1043	0.0015	6.0150	-8.0967	-0.8480	1.7122	0.5798	242392.5781	-1.3264	9.7775	1.2199	-0.0467	9.6343	-1.5654	0.3098	-0.7759	-0.3157	0.0000	0.0000
242402.3437	1.4464	8.5771	-5.1377	-1.5428	9.1086	3.8726	-0.3181	-0.5825	-0.7722	242402.3437	-0.8250	4.2323	-2.0773	0.8234	9.7195	0.2454	-0.2538	-0.6699	-0.4581	242402.3437	-1.0859	0.8144	-0.3003	-0.5669	4.0196	-8.7020	-0.3903	-0.0958	0.6233	242402.3437	0.9796	7.5272	-4.1648	-0.3475	9.4499	3.0947	0.2039	-0.7037	0.1593	242402.3437	3509012339.0201	3509012096.6177	0.2971	1.2197	0.7627	1.2628	9.6684	0.6181	0.2612	-0.6277	0.4042	242402.3437	-0.0479	0.0506	-0.1043	0.1616	5.8657	-7.8581	-0.8080	1.7500	0.5563	242402.3437	-1.3264	9.7775	1.2199	0.1117	9.7864	-1.6446	0.3210	-0.7701	-0.3134	0.0000	0.0000
242412.1094	1.4464	8.5771	-5.1377	-1.5406	8.8795	4.1005	-0.3029	-0.5282	-0.7505	242412.1094	-2.3812	2.0179	-2.8531	0.9030	9.7203	0.3240	-0.2654	-0.6504	-0.4280	242412.1094	-1.0859	0.8144	-0.3003	-0.5669	4.2549	-8.7043	-0.3722	-0.0708	0.6278	242412.1094	0.6735	7.9539	-4.7678	-0.2725	9.4499	2.8624	0.2039	-0.7037	0.1593	242412.1094	3509012339.0298	3509012096.6177	0.2971	1.2197	0.7627	1.4193	9.6684	0.6181	0.2469	-0.6362	0.3495	242412.1094	-0.0479	0.0506	-0.1043	0.0820	5.9411	-7.9376	-0.8180	1.7416	0.5329	242412.1094	-0.9591	9.0359	1.4477	0.0336	9.6351	-1.4876	0.2894	-0.7720	-0.3088	0.0000	0.0000
242421.8750	1.0599	12.8614	-5.0364	-1.5436	9.0322	3.7982	-0.3010	-0.5165	-0.7657	242421.8750	-2.3812	2.0179	-2.8531	0.6642	9.7203	0.3240	-0.2635	-0.6719	-0.4430	242421.8750	0.1861	0.2438	-0.0146	-0.7226	4.1765	-8.7020	-0.3722	-0.0708	0.6278	242421.8750	0.6735	7.9539	-4.7678	-0.2717	9.4499	2.9396	0.2196	-0.7119	0.1639	242421.8750	3509012339.0396	3509012096.6177	0.2971	1.2197	0.7627	1.2628	9.6692	0.6971	0.2408	-0.6170	0.3768	242421.8750	-0.3607	-0.0413	-0.1691	0.1600	5.9395	-8.0188	-0.8180	1.7416	0.5329	242421.8750	-0.9591	9.0359	1.4477	-0.0467	9.6343	-1.5654	0.3228	-0.7778	-0.3065	0.0000	0.0000
242431.6406	1.0599	12.8614	-5.0364	-1.4631	9.1086	3.8718	-0.3105	-0.5262	-0.7440	242431.6406	-2.3812	2.0179	-2.8531	0.6642	9.7991	0.4011	-0.2615	-0.6602	-0.4516	242431.6406	0.1861	0.2438	-0.0146	-0.7226	4.3333	-8.7036	-0.3742	-0.0792	0.6057	242431.6406	0.6735	7.9539	-4.7678	-0.4288	9.5263	2.7088	0.2157	-0.7037	0.1452	242431.6406	3509012339.0494	3509012096.6177	0.7895	1.3829	-0.2772	1.1064	9.9025	0.6948	0.2306	-0.6617	0.4042	242431.6406	-0.3607	-0.0413	-0.1691	0.0828	5.7887	-7.8550	-0.8300	1.7269	0.5704	242431.6406	-0.9591	9.0359	1.4477	0.0336	9.5586	-1.4868	0.3024	-0.7414	-0.3134	0.0000	0.0000
242441.4062	1.0599	12.8614	-5.0364	-1.2241	8.9558	3.8710	-0.2990	-0.5282	-0.7744	242441.4062	0.3470	0.4359	-2.1806	0.5050	9.7211	0.4026	-0.2615	-0.6602	-0.4516	242441.4062	0.1861	0.2438	-0.0146	-0.7226	4.2549	-8.7028	-0.3863	-0.1000	0.6344	242441.4062	0.6735	7.9539	-4.7678	-0.2717	9.3735	2.9403	0.1980	-0.6811	0.1522	242441.4062	3509012339.0591	3509012096.6177	0.7895	1.3829	-0.2772	0.9499	9.9032	0.7738	0.2306	-0.6617	0.4042	242441.4062	-0.3607	-0.0413	-0.1691	0.0032	5.8642	-7.9345	-0.8240	1.7290	0.5516	242441.4062	-0.3708	8.5061	2.4697	0.1125	9.6343	-1.5654	0.3228	-0.7682	-0.3065	0.0000	0.0000
242451.1719	1.3906	13.9935	-3.7028	-1.2248	8.9558	3.7958	-0.3048	-0.5612	-0.7549	242451.1719	0.3470	0.4359	-2.1806	0.5050	9.8748	0.1637	-0.2865	-0.6602	-0.4258	242451.1719	0.1861	0.2438	-0.0146	-0.7226	4.4117	-8.7044	-0.3702	-0.0958	0.6211	242451.1719	0.9337	5.0536	-3.5153	-0.3475	9.4499	3.0947	0.1980	-0.6811	0.1522	242451.1719	3509012339.0689	3509012096.6177	0.7895	1.3829	-0.2772	1.1064	9.8255	0.7746	0.2531	-0.6043	0.3747	242451.1719	0.2305	-0.2413	-0.3651	-0.0756	5.7872	-7.9314	-0.8080	1.7332	0.5376	242451.1719	-0.3708	8.5061	2.4697	0.1140	9.7123	-1.4106	0.3043	-0.7625	-0.3065	0.0000	0.0000
242460.9375	1.3906	13.9935	-3.7028	-1.0662	9.1850	3.7167	-0.3124	-0.5495	-0.7766	242460.9375	0.3470	0.4359	-2.1806	0.5050	9.7203	0.3240	-0.2577	-0.6699	-0.4452	242460.9375	0.2453	0.1846	-0.1527	-0.8005	4.3333	-8.7028	-0.3702	-0.0958	0.6211	242460.9375	0.9337	5.0536	-3.5153	-0.2701	9.3735	3.0947	0.1863	-0.7263	0.1710	242460.9375	3509012339.0787	3509012096.6177	0.7895	1.3829	-0.2772	1.3411	9.6692	0.6971	0.2531	-0.5957	0.3768	242460.9375	0.2305	-0.2413	-0.3651	-0.0749	5.9428	-7.8549	-0.8080	1.7332	0.5376	242460.9375	-0.3708	8.5061	2.4697	0.0336	9.5586	-1.4868	0.3191	-0.7548	-0.2995	0.0000	0.0000
242470.7031	1.3906	13.9935	-3.7028	-1.0654	9.0322	3.7934	-0.3143	-0.5748	-0.7419	242470.7031	-0.4517	1.0626	-2.1202	0.4254	9.7211	0.4026	-0.2577	-0.6699	-0.4452	242470.7031	0.2453	0.1846	-0.1527	-0.7226	4.2557	-8.6260	-0.3521	-0.0729	0.5969	242470.7031	0.9337	5.0536	-3.5153	-0.5023	9.3735	3.0971	0.2118	-0.6790	0.1405	242470.7031	3509012339.0884	3509012096.6177	0.3647	2.0443	-0.1021	1.4976	9.5922	0.7769	0.2531	-0.5957	0.3768	242470.7031	0.2305	-0.2413	-0.3651	0.0047	5.9443	-7.7769	-0.8400	1.6891	0.5845	242470.7031	0.4162	6.7504	2.0746	0.1928	9.6351	-1.4876	0.3061	-0.7471	-0.3018	0.0000	0.0000
242480.4687	1.9544	9.6307	-2.5983	-1.0647	8.8795	3.8701	-0.3105	-0.5573	-0.7766	242480.4687	-0.4517	1.0626	-2.1202	0.5050	9.7203	0.3240	-0.2712	-0.6602	-0.4516	242480.4687	0.2453	0.1846	-0.1527	-0.7226	4.1765	-8.7020	-0.3702	-0.1000	0.6123	242480.4687	1.3470	3.6610	-3.0657	-0.5023	9.4499	3.0963	0.2118	-0.6790	0.1405	242480.4687	3509012339.0982	3509012096.6177	0.3647	2.0443	-0.1021	1.4976	9.6700	0.7761	0.2531	-0.6362	0.4105	242480.4687	0.2305	-0.2413	-0.3651	0.0040	5.7888	-7.8534	-0.8120	1.7122	0.5493	242480.4687	0.4162	6.7504	2.0746	0.0329	9.5578	-1.5646	0.3284	-0.7510	-0.3065	0.0000	0.0000
242490.2344	1.9544	9.6307	-2.5983	-1.2226	9.1086	4.0198	-0.3162	-0.5592	-0.7484	242490.2344	-0.4517	1.0626	-2.1202	0.5050	9.7983	0.3225	-0.2788	-0.6836	-0.4258	242490.2344	-0.5406	0.1457	-0.1148	-0.8005	4.2534	-8.8557	-0.3702	-0.0896	0.6123	242490.2344	1.3470	3.6610	-3.0657	-0.2709	9.4499	3.0168	0.2020	-0.6975	0.1546	242490.2344	3509012339.1080	3509012096.6177	0.3647	2.0443	-0.1021	1.7323	9.5922	0.7769	0.2510	-0.6085	0.3874	242490.2344	0.5113	-0.2675	-0.3733	0.0827	5.9427	-7.8581	-0.8140	1.7269	0.5305	242490.2344	0.4162	6.7504	2.0746	-0.0460	9.5586	-1.4868	0.3043	-0.7586	-0.3088	0.0000	0.0000
242500.0000	1.9544	9.6307	-2.5983	-1.3842	9.0322	3.7966	-0.2971	-0.5223	-0.7787	242500.0000	-0.4517	1.0626	-2.1202	0.5050	9.7991	0.4011	-0.2500	-0.6641	-0.4473	242500.0000	-0.5406	0.1457	-0.1148	-0.7226	4.1772	-8.6252	-0.3702	-0.0896	0.6278	242500.0000	1.3470	3.6610	-3.0657	-0.5023	9.4499	3.0963	0.1941	-0.7366	0.1733	242500.0000	3509012339.1177	3509012096.6177	1.8280	0.0581	-0.0454	1.4193	9.6692	0.6971	0.2510	-0.5957	0.3789	242500.0000	0.5113	-0.2675	-0.3733	0.0820	5.8641	-7.9361	-0.8140	1.7269	0.5305	242500.0000	1.8750	5.4942	1.9253	-0.0452	9.6358	-1.4098	0.3284	-0.7625	-0.2995	0.0000	0.0000
242509.7656	0.0823	-0.2770	-1.1374	-1.3045	8.9558	3.7966	-0.3105	-0.5223	-0.7462	242509.7656	-1.1866	1.9122	-1.6819	0.5050	9.7999	0.4797	-0.2500	-0.6641	-0.4473	242509.7656	-0.5406	0.1457	-0.1148	-0.6448	4.1772	-8.6260	-0.3501	-0.0542	0.5969	242509.7656	1.9287	4.5302	-3.1530	-0.4234	9.6790	3.2476	0.1843	-0.7202	0.1429	242509.7656	3509012339.1275	3509012096.6177	1.8280	0.0581	-0.0454	1.3411	9.7469	0.6964	0.2510	-0.5957	0.3789	242509.7656	0.5113	-0.2675	-0.3733	-0.0764	5.8626	-8.0125	-0.8380	1.7164	0.5869	242509.7656	1.8750	5.4942	1.9253	0.1125	9.6343	-1.5654	0.3080	-0.7759	-0.3134	0.0000	0.0000
242519.5312	0.0823	-0.2770	-1.1374	-1.3819	9.0322	4.0222	-0.2971	-0.5282	-0.7809	242519.5312	-1.1866	1.9122	-1.6819	0.6642	9.7211	0.4026	-0.2654	-0.6719	-0.4473	242519.5312	-0.6689	-0.2253	0.0957	-0.7226	4.2557	-8.6260	-0.3763	-0.1104	0.6013	242519.5312	1.9287	4.5302	-3.1530	-0.2701	9.4499	3.0940	0.1843	-0.7202	0.1429	242519.5312	3509012339.1373	3509012096.6177	1.8280	0.0581	-0.0454	1.1064	9.5906	0.6189	0.2449	-0.6234	0.4021	242519.5312	0.5738	-0.4674	-0.3732	0.0024	5.9396	-8.0156	-0.8100	1.7038	0.5469	242519.5312	1.8750	5.4942	1.9253	0.0352	9.6366	-1.3321	0.3265	-0.7950	-0.3041	0.0000	0.0000
242529.2969	0.0823	-0.2770	-1.1374	-1.7797	9.0322	4.1014	-0.3010	-0.5165	-0.7484	242529.2969	-1.1866	1.9122	-1.6819	0.9826	9.7203	0.3240	-0.2692	-0.6641	-0.4258	242529.2969	-0.6689	-0.2253	0.0957	-0.7226	4.2549	-8.7028	-0.3763	-0.1104	0.6013	242529.2969	1.9287	4.5302	-3.1530	-0.2694	9.4499	3.1712	0.2078	-0.6811	0.1452	242529.2969	3509012339.1470	3509012096.6177	1.9142	0.1337	-0.5654	1.0281	9.6692	0.6971	0.2469	-0.6298	0.3874	242529.2969	0.5738	-0.4674	-0.3732	0.0820	5.8641	-7.9361	-0.8260	1.7395	0.5423	242529.2969	1.8750	5.4942	1.9253	-0.0467	9.5578	-1.5646	0.3173	-0.7567	-0.3065	0.0000	0.0000
242539.0625	0.0823	-0.2770	-1.1374	-1.6992	9.0322	4.1758	-0.2952	-0.5456	-0.7787	242539.0625	-1.1070	2.8172	-0.5880	0.8234	9.7195	0.2454	-0.2519	-0.6465	-0.4516	242539.0625	-0.6689	-0.2253	0.0957	-0.6448	4.3348	-8.5507	-0.3883	-0.0813	0.6388	242539.0625	1.1480	7.6290	-2.0680	-0.2717	9.5263	2.9388	0.1980	-0.7428	0.1639	242539.0625	3509012339.1568	3509012096.6177	1.9142	0.1337	-0.5654	1.0281	9.6684	0.6181	0.2469	-0.6298	0.3874	242539.0625	0.5738	-0.4674	-0.3732	0.0032	5.8642	-7.9345	-0.8260	1.7395	0.5423	242539.0625	0.0951	4.2531	1.9056	0.1132	9.7115	-1.4884	0.3154	-0.7893	-0.3088	0.0000	0.0000
242548.8281	0.0650	4.1571	0.4019	-1.7022	8.8795	3.8765	-0.3067	-0.5417	-0.7484	242548.8281	-1.1070	2.8172	-0.5880	0.9030	9.6423	0.3256	-0.2519	-0.6465	-0.4516	242548.8281	-0.6689	-0.2253	0.0957	-0.7226	4.1749	-8.8557	-0.3642	-0.1229	0.6101	242548.8281	1.1480	7.6290	-2.0680	-0.3483	9.4499	3.0175	0.1980	-0.7016	0.1475	242548.8281	3509012339.1666	3509012096.6177	1.9142	0.1337	-0.5654	1.2628	9.7469	0.6964	0.2449	-0.6170	0.3705	242548.8281	0.6539	-0.2945	-0.1669	0.0828	5.8657	-7.8565	-0.8480	1.6849	0.5798	242548.8281	0.0951	4.2531	1.9056	0.0321	9.5571	-1.6424	0.3117	-0.7395	-0.3041	0.0000	0.0000
242558.5937	0.0650	4.1571	0.4019	-1.5428	9.0322	3.8734	-0.3048	-0.5534	-0.7744	242558.5937	-1.1070	2.8172	-0.5880	0.9030	9.7211	0.4026	-0.2750	-0.6738	-0.4538	242558.5937	-0.0656	-0.2600	-0.0019	-0.5669	4.3325	-8.7820	-0.3863	-0.0958	0.6189	242558.5937	1.1480	7.6290	-2.0680	-0.1169	9.3735	2.9388	0.1980	-0.7016	0.1475	242558.5937	3509012339.1763	3509012096.6177	0.9581	0.5559	-1.7099	1.2628	9.7469	0.6964	0.2449	-0.6511	0.4021	242558.5937	0.6539	-0.2945	-0.1669	0.0039	5.9427	-7.8565	-0.8120	1.7521	0.5540	242558.5937	0.0951	4.2531	1.9056	0.0336	9.6351	-1.4876	0.3340	-0.7663	-0.3065	0.0000	0.0000
242568.3594	0.0650	4.1571	0.4019	-1.3060	9.0322	3.6454	-0.3029	-0.5456	-0.7484	242568.3594	1.1063	-1.0847	0.6959	0.7438	9.6423	0.3256	-0.2577	-0.6660	-0.4301	242568.3594	-0.0656	-0.2600	-0.0019	-0.6448	4.2556	-8.6267	-0.3863	-0.0958	0.6189	242568.3594	1.1480	7.6290	-2.0680	-0.1935	9.5263	3.0152	0.2039	-0.7058	0.1522	242568.3594	3509012339.1861	3509012096.6177	0.9581	0.5559	-1.7099	1.4193	9.8255	0.7746	0.2490	-0.6404	0.4000	242568.3594	0.6539	-0.2945	-0.1669	-0.0756	5.8642	-7.9329	-0.8360	1.7269	0.5352	242568.3594	0.2493	3.8898	0.5962	0.0329	9.6343	-1.5654	0.3191	-0.7625	-0.3065	0.0000	0.0000
242578.1250	0.4910	8.1571	-0.3249	-1.3045	9.1086	3.7950	-0.3086	-0.5282	-0.7722	242578.1250	1.1063	-1.0847	0.6959	0.6642	9.7968	0.1652	-0.2577	-0.6758	-0.4516	242578.1250	-0.0656	-0.2600	-0.0019	-0.6448	4.2556	-8.6267	-0.3944	-0.1062	0.6322	242578.1250	1.7756	-0.3196	-1.0711	-0.2694	9.4499	3.1712	0.2000	-0.7016	0.1733	242578.1250	3509012339.1959	3509012096.6177	0.9581	0.5559	-1.7099	1.4193	9.7501	1.0124	0.2490	-0.6404	0.4000	242578.1250	0.6539	-0.2945	-0.1669	0.0039	5.9427	-7.8565	-0.8360	1.7269	0.5352	242578.1250	0.2493	3.8898	0.5962	-0.1264	9.6343	-1.5654	0.3284	-0.7759	-0.3088	0.0000	0.0000
242587.8906	0.4910	8.1571	-0.3249	-1.3038	9.0322	3.8710	-0.2971	-0.5184	-0.7419	242587.8906	1.1063	-1.0847	0.6959	0.5846	9.7219	0.4812	-0.2577	-0.6758	-0.4516	242587.8906	0.4192	-0.1789	0.2981	-0.5669	4.2556	-8.6275	-0.3561	-0.0896	0.6101	242587.8906	1.7756	-0.3196	-1.0711	-0.1928	9.5263	3.0924	0.2000	-0.7016	0.1733	242587.8906	3509012339.2056	3509012096.6177	0.9581	0.5559	-1.7099	1.4976	9.6708	0.8551	0.2592	-0.6319	0.3600	242587.8906	0.9958	-0.4102	-0.3113	-0.0748	5.8658	-7.8534	-0.8320	1.7332	0.5822	242587.8906	0.2493	3.8898	0.5962	0.1929	9.4822	-1.4861	0.3080	-0.7625	-0.2903	0.0000	0.0000
242597.6562	0.4910	8.1571	-0.3249	-1.3030	9.0322	3.9462	-0.2933	-0.5243	-0.7787	242597.6562	-0.0636	-0.5421	0.8724	0.3458	9.8764	0.3209	-0.2788	-0.6895	-0.4559	242597.6562	0.4192	-0.1789	0.2981	-0.6448	4.1772	-8.6260	-0.3561	-0.0896	0.6101	242597.6562	1.7756	-0.3196	-1.0711	-0.2686	9.4499	3.2484	0.1980	-0.6852	0.1546	242597.6562	3509012339.2154	3509012096.6177	1.3337	-0.7928	-0.7125	1.4976	9.7477	0.7754	0.2510	-0.6447	0.3979	242597.6562	0.9958	-0.4102	-0.3113	0.0039	5.9427	-7.8565	-0.8260	1.7164	0.5469	242597.6562	1.6365	3.7839	0.8892	-0.0460	9.5586	-1.4868	0.3358	-0.7720	-0.3041	0.0000	0.0000
242607.4219	-1.0507	8.9396	-1.5533	-1.1459	8.9558	3.7198	-0.2876	-0.5204	-0.7527	242607.4219	-0.0636	-0.5421	0.8724	0.2662	9.7195	0.2454	-0.2808	-0.6816	-0.4323	242607.4219	0.4192	-0.1789	0.2981	-0.6448	4.3333	-8.7044	-0.3722	-0.0896	0.6101	242607.4219	0.5204	-3.4028	-1.2098	-0.4226	9.4499	3.3271	0.2000	-0.7037	0.1522	242607.4219	3509012339.2252	3509012096.6177	1.3337	-0.7928	-0.7125	1.6540	9.7469	0.6964	0.2510	-0.6447	0.3979	242607.4219	0.9958	-0.4102	-0.3113	0.0039	5.9427	-7.8565	-0.8260	1.7500	0.5516	242607.4219	1.6365	3.7839	0.8892	0.0329	9.5578	-1.5646	0.3154	-0.7759	-0.3111	0.0000	0.0000
242617.1875	-1.0507	8.9396	-1.5533	-1.0654	8.8031	3.7957	-0.2933	-0.5301	-0.7722	242617.1875	-0.0636	-0.5421	0.8724	0.3458	9.7983	0.3225	-0.2808	-0.6816	-0.4323	242617.1875	0.4042	-0.1754	0.1310	-0.8005	4.1757	-8.7780	-0.3823	-0.1042	0.6300	242617.1875	0.5204	-3.4028	-1.2098	-0.1935	9.4499	3.0160	0.2020	-0.7140	0.1639	242617.1875	3509012339.2349	3509012096.6177	1.3337	-0.7928	-0.7125	1.4193	9.6692	0.6971	0.2612	-0.6447	0.3979	242617.1875	0.9920	-0.4292	-0.6866	0.0828	5.8657	-7.8565	-0.8220	1.7500	0.5516	242617.1875	1.6365	3.7839	0.8892	0.0329	9.6343	-1.5654	0.3265	-0.7931	-0.3065	0.0000	0.0000
242626.9531	-1.0507	8.9396	-1.5533	-1.2248	9.1086	3.7943	-0.3067	-0.5456	-0.7484	242626.9531	-0.0636	-0.5421	0.8724	0.4254	9.7991	0.4011	-0.2577	-0.6504	-0.4366	242626.9531	0.4042	-0.1754	0.1310	-0.8005	4.3349	-8.5491	-0.3581	-0.1000	0.6101	242626.9531	0.5204	-3.4028	-1.2098	-0.1928	9.4499	3.0932	0.2020	-0.7140	0.1639	242626.9531	3509012339.2447	3509012096.6177	1.6442	-0.0012	-0.1379	1.2628	9.7461	0.6174	0.2571	-0.6234	0.3600	242626.9531	0.9920	-0.4292	-0.6866	-0.0756	5.8642	-7.9329	-0.8440	1.6933	0.5822	242626.9531	1.8837	2.8152	1.2733	0.1117	9.6335	-1.6431	0.3135	-0.7778	-0.3018	0.0000	0.0000
242636.7187	-0.6037	1.5556	-1.6978	-1.3834	9.0322	3.8718	-0.3048	-0.5786	-0.7701	242636.7187	-1.4720	0.2152	0.7410	0.2662	9.7968	0.1652	-0.2769	-0.6895	-0.4538	242636.7187	0.4042	-0.1754	0.1310	-0.7226	4.2557	-8.6260	-0.3581	-0.1000	0.6101	242636.7187	0.9490	4.7407	-2.4817	-0.1169	9.5263	2.9373	0.2078	-0.6893	0.1452	242636.7187	3509012339.2545	3509012096.6177	1.6442	-0.0012	-0.1379	1.4976	9.8231	0.5376	0.2551	-0.6170	0.3832	242636.7187	0.9920	-0.4292	-0.6866	0.0836	5.8673	-7.7770	-0.7980	1.7563	0.5423	242636.7187	1.8837	2.8152	1.2733	0.0321	9.7100	-1.6439	0.3024	-0.7778	-0.3088	0.0000	0.0000
242646.4844	-0.6037	1.5556	-1.6978	-1.1444	9.0322	3.8694	-0.3048	-0.5728	-0.7505	242646.4844	-1.4720	0.2152	0.7410	0.4254	9.6439	0.4828	-0.2654	-0.6406	-0.4237	242646.4844	0.7731	0.1506	-0.2495	-0.8005	4.3333	-8.7028	-0.3742	-0.1042	0.5991	242646.4844	0.9490	4.7407	-2.4817	-0.2709	9.4499	3.0168	0.1941	-0.6790	0.1452	242646.4844	3509012339.2642	3509012096.6177	1.6442	-0.0012	-0.1379	1.1064	9.7454	0.5383	0.2551	-0.6170	0.3832	242646.4844	1.3067	-0.7074	-0.4378	0.0032	5.7872	-7.9330	-0.7980	1.7563	0.5423	242646.4844	1.8837	2.8152	1.2733	0.0321	9.7100	-1.6439	0.3061	-0.7778	-0.3088	0.0000	0.0000
242656.2500	-0.6037	1.5556	-1.6978	-1.3834	8.9558	3.8726	-0.3067	-0.5786	-0.7636	242656.2500	-1.4720	0.2152	0.7410	0.5050	9.7195	0.2454	-0.2654	-0.6406	-0.4237	242656.2500	0.7731	0.1506	-0.2495	-0.7226	4.2557	-8.6260	-0.3702	-0.1000	0.6278	242656.2500	0.9490	4.7407	-2.4817	-0.1177	9.5263	2.8601	0.1941	-0.7346	0.1733	242656.2500	3509012339.2740	3509012096.6177	2.4460	0.4493	-0.7154	0.9499	9.8239	0.6166	0.2449	-0.6681	0.3937	242656.2500	1.3067	-0.7074	-0.4378	0.0812	5.7856	-8.0141	-0.8340	1.7353	0.5469	242656.2500	1.8837	2.8152	1.2733	0.1117	9.7100	-1.6439	0.3247	-0.7874	-0.3088	0.0000	0.0000
242666.0156	-0.6037	1.5556	-1.6978	-1.7037	9.0322	3.7246	-0.2914	-0.5282	-0.7570	242666.0156	0.7792	1.4617	0.0818	0.6642	9.6415	0.2470	-0.2731	-0.6699	-0.4538	242666.0156	0.7731	0.1506	-0.2495	-0.7226	4.3341	-8.6268	-0.3702	-0.1000	0.6278	242666.0156	-0.4898	-0.7451	-0.1307	-0.3498	9.4499	2.8632	0.1941	-0.7346	0.1733	242666.0156	3509012339.2838	3509012096.6177	2.4460	0.4493	-0.7154	0.4804	9.6692	0.6971	0.2612	-0.6043	0.3621	242666.0156	1.3067	-0.7074	-0.4378	0.0024	5.7856	-8.0125	-0.8300	1.7269	0.5751	242666.0156	0.5457	0.9687	-0.1885	0.1101	9.7084	-1.7994	0.3024	-0.7625	-0.2903	0.0000	0.0000
242675.7812	0.2480	-2.5646	-0.1816	-1.6233	9.0322	3.7990	-0.2933	-0.5301	-0.7831	242675.7812	0.7792	1.4617	0.0818	0.5846	9.7203	0.3240	-0.2615	-0.7012	-0.4516	242675.7812	0.7731	0.1506	-0.2495	-0.7226	4.2541	-8.7796	-0.3722	-0.0771	0.6233	242675.7812	-0.4898	-0.7451	-0.1307	-0.4249	9.4499	3.0955	0.2059	-0.6893	0.1405	242675.7812	3509012339.2935	3509012096.6177	2.4460	0.4493	-0.7154	0.4804	9.7469	0.6964	0.2612	-0.6043	0.3621	242675.7812	2.0257	-1.2709	-0.3336	0.0031	6.0181	-7.9376	-0.8120	1.7521	0.5516	242675.7812	0.5457	0.9687	-0.1885	0.0329	9.6343	-1.5654	0.3302	-0.7510	-0.3041	0.0000	0.0000
242685.5469	0.2480	-2.5646	-0.1816	-1.4624	9.0322	3.9478	-0.2971	-0.5262	-0.7636	242685.5469	0.7792	1.4617	0.0818	0.5050	9.7211	0.4026	-0.2712	-0.6348	-0.4280	242685.5469	0.3254	-0.3396	-0.0523	-0.6448	4.1772	-8.6260	-0.3541	-0.0583	0.6013	242685.5469	-0.4898	-0.7451	-0.1307	-0.5797	9.3735	3.0978	0.1941	-0.6831	0.1475	242685.5469	3509012339.3033	3509012096.6177	1.5389	4.3251	-3.0506	0.7934	9.6708	0.8551	0.2265	-0.6426	0.3768	242685.5469	2.0257	-1.2709	-0.3336	-0.1545	5.9412	-7.9329	-0.8120	1.7521	0.5516	242685.5469	0.5457	0.9687	-0.1885	0.0336	9.4822	-1.4861	0.3340	-0.7433	-0.3018	0.0000	0.0000
242695.3125	0.2480	-2.5646	-0.1816	-1.4631	9.0322	3.8726	-0.2952	-0.5262	-0.7636	242695.3125	0.1961	-0.2978	0.6556	0.5050	9.7983	0.3225	-0.2712	-0.6348	-0.4280	242695.3125	0.3254	-0.3396	-0.0523	-0.7226	4.2549	-8.7028	-0.3843	-0.0750	0.6344	242695.3125	-0.4898	-0.7451	-0.1307	-0.5797	9.3735	3.0978	0.1941	-0.6831	0.1475	242695.3125	3509012339.3131	3509012096.6177	1.5389	4.3251	-3.0506	1.1064	9.7493	0.9334	0.2469	-0.6255	0.4021	242695.3125	2.0257	-1.2709	-0.3336	0.0048	5.8674	-7.7754	-0.8200	1.7248	0.5493	242695.3125	-0.3528	0.4692	-0.2890	-0.0475	9.6335	-1.6431	0.3302	-0.7471	-0.3041	0.0000	0.0000
242705.0781	-0.3066	-1.5465	0.8479	-1.5436	8.9558	3.7990	-0.2838	-0.5476	-0.7505	242705.0781	0.1961	-0.2978	0.6556	0.5846	9.7211	0.4026	-0.2712	-0.6641	-0.4495	242705.0781	0.3254	-0.3396	-0.0523	-0.8005	4.1772	-8.6244	-0.3843	-0.0750	0.6344	242705.0781	1.3317	-3.4502	2.8308	-0.5781	9.2971	3.2530	0.1922	-0.7284	0.1686	242705.0781	3509012339.3228	3509012096.6177	1.5389	4.3251	-3.0506	1.5758	9.5938	0.9349	0.2469	-0.6021	0.4021	242705.0781	2.0257	-1.2709	-0.3336	0.0032	5.8642	-7.9345	-0.8300	1.6975	0.5939	242705.0781	-0.3528	0.4692	-0.2890	-0.1264	9.6343	-1.5654	0.3247	-0.7567	-0.2995	0.0000	0.0000
242714.8437	-0.3066	-1.5465	0.8479	-1.7022	8.9558	3.8758	-0.3124	-0.5612	-0.7744	242714.8437	0.1961	-0.2978	0.6556	0.5050	9.7976	0.2439	-0.2788	-0.6777	-0.4538	242714.8437	0.4639	-0.2066	0.1301	-0.7226	4.2557	-8.6260	-0.3581	-0.0708	0.6366	242714.8437	1.3317	-3.4502	2.8308	-0.4226	9.2971	3.3286	0.1922	-0.7222	0.1429	242714.8437	3509012339.3326	3509012096.6177	0.9418	6.6848	-3.3334	1.5758	9.5938	0.9349	0.2592	-0.6021	0.3684	242714.8437	1.7241	-0.5753	-0.8424	0.0820	5.8641	-7.9361	-0.8100	1.7143	0.5376	242714.8437	-0.3528	0.4692	-0.2890	-0.1256	9.7115	-1.4884	0.3265	-0.7490	-0.3041	0.0000	0.0000
242724.6094	-0.3066	-1.5465	0.8479	-1.7030	8.9558	3.8006	-0.3029	-0.5495	-0.7570	242724.6094	-1.4246	1.4121	0.4495	0.4254	9.7976	0.2439	-0.2596	-0.6406	-0.4258	242724.6094	0.4639	-0.2066	0.1301	-0.7226	4.3325	-8.7804	-0.3602	-0.0729	0.6101	242724.6094	1.3317	-3.4502	2.8308	-0.3460	9.3735	3.2499	0.2020	-0.6749	0.1429	242724.6094	3509012339.3423	3509012096.6177	0.9418	6.6848	-3.3334	1.7323	9.5938	0.9349	0.2469	-0.6043	0.3789	242724.6094	1.7241	-0.5753	-0.8424	0.0032	5.9412	-7.9361	-0.8100	1.7143	0.5376	242724.6094	-0.9097	1.3319	0.2940	-0.1271	9.6335	-1.6431	0.3340	-0.7375	-0.3041	0.0000	0.0000
242734.3750	-1.0494	0.2253	1.3294	-1.7015	8.9558	3.9510	-0.3124	-0.5631	-0.7570	242734.3750	-1.4246	1.4121	0.4495	0.4254	9.7991	0.4011	-0.2596	-0.6406	-0.4258	242734.3750	0.4639	-0.2066	0.1301	-0.8005	4.2541	-8.7788	-0.3602	-0.0729	0.6101	242734.3750	1.3623	2.8592	1.4576	-0.2694	9.5263	3.1704	0.2020	-0.6749	0.1429	242734.3750	3509012339.3521	3509012096.6177	0.9418	6.6848	-3.3334	1.9670	9.5922	0.7769	0.2429	-0.6319	0.4021	242734.3750	1.7241	-0.5753	-0.8424	0.0820	5.9411	-7.9376	-0.8340	1.7080	0.5540	242734.3750	-0.9097	1.3319	0.2940	-0.1264	9.7872	-1.5669	0.3228	-0.7586	-0.3134	0.0000	0.0000
242744.1406	-1.0494	0.2253	1.3294	-1.7015	8.8795	3.9517	-0.3029	-0.5592	-0.7766	242744.1406	-1.4246	1.4121	0.4495	0.4254	9.8772	0.3995	-0.2635	-0.6738	-0.4473	242744.1406	0.7751	0.2528	0.0100	-0.7226	4.1772	-8.6252	-0.3843	-0.0937	0.6256	242744.1406	1.3623	2.8592	1.4576	-0.1928	9.4499	3.0932	0.1961	-0.7428	0.1639	242744.1406	3509012339.3619	3509012096.6177	0.9418	6.6848	-3.3334	2.1235	9.5160	0.9357	0.2429	-0.6319	0.4021	242744.1406	1.7851	-0.8167	-0.9770	0.0032	5.8642	-7.9345	-0.8400	1.7185	0.5869	242744.1406	-0.9097	1.3319	0.2940	-0.2067	9.7864	-1.6446	0.3191	-0.7490	-0.3018	0.0000	0.0000
242753.9062	-1.0494	0.2253	1.3294	-1.5428	8.8795	3.8749	-0.2914	-0.5301	-0.7657	242753.9062	-1.4246	1.4121	0.4495	0.2662	9.7203	0.3240	-0.2558	-0.6602	-0.4538	242753.9062	0.7751	0.2528	0.0100	-0.7226	4.2549	-8.7028	-0.3763	-0.0813	0.6322	242753.9062	1.3623	2.8592	1.4576	-0.1146	9.5263	3.1689	0.1961	-0.7078	0.1569	242753.9062	3509012339.3716	3509012096.6177	1.2836	0.1094	-2.6793	1.7323	9.8263	0.8536	0.2469	-0.6255	0.3705	242753.9062	1.7851	-0.8167	-0.9770	0.0820	5.8641	-7.9361	-0.8240	1.7437	0.5423	242753.9062	-2.3874	4.0260	0.0803	-0.1256	9.6351	-1.4876	0.3302	-0.7893	-0.3180	0.0000	0.0000
242763.6719	-1.0494	0.2253	1.3294	-1.6225	8.8795	3.8757	-0.2857	-0.5204	-0.7657	242763.6719	-1.0107	3.2033	0.0926	0.5050	9.7195	0.2454	-0.2673	-0.6348	-0.4237	242763.6719	0.7751	0.2528	0.0100	-0.8005	4.3333	-8.7028	-0.3662	-0.0854	0.5969	242763.6719	0.4592	6.8690	-0.9050	-0.3468	9.4499	3.1719	0.1980	-0.6975	0.1405	242763.6719	3509012339.3814	3509012096.6177	1.2836	0.1094	-2.6793	1.3411	9.7477	0.7754	0.2408	-0.5979	0.3768	242763.6719	1.7851	-0.8167	-0.9770	-0.0773	6.0150	-8.0951	-0.8240	1.7437	0.5423	242763.6719	-2.3874	4.0260	0.0803	-0.1256	9.7115	-1.4884	0.3284	-0.7874	-0.3065	0.0000	0.0000
242773.4375	-0.8026	1.4809	-0.8198	-1.6233	8.9558	3.7998	-0.2971	-0.5359	-0.7592	242773.4375	-1.0107	3.2033	0.0926	0.4254	9.7999	0.4797	-0.2673	-0.6348	-0.4237	242773.4375	0.7751	0.2528	0.0100	-0.7226	4.4125	-8.6275	-0.3662	-0.0854	0.5969	242773.4375	0.4592	6.8690	-0.9050	-0.1897	9.3735	3.4027	0.1980	-0.6975	0.1405	242773.4375	3509012339.3912	3509012096.6177	1.2836	0.1094	-2.6793	1.1846	9.6716	0.9341	0.2408	-0.5979	0.3768	242773.4375	1.6651	-0.9176	-0.4916	-0.0757	6.0182	-7.9360	-0.8440	1.7143	0.5587	242773.4375	-2.3874	4.0260	0.0803	-0.0460	9.7880	-1.4891	0.3061	-0.7797	-0.3018	0.0000	0.0000
242783.2031	-0.8026	1.4809	-0.8198	-1.7022	9.1086	3.8742	-0.2781	-0.5223	-0.7852	242783.2031	-1.0107	3.2033	0.0926	0.5050	9.7211	0.4026	-0.2615	-0.6895	-0.4516	242783.2031	0.3382	0.3015	0.0909	-0.6448	4.3341	-8.6275	-0.3803	-0.1021	0.6322	242783.2031	0.4592	6.8690	-0.9050	-0.3460	9.3735	3.2499	0.1980	-0.6975	0.1710	242783.2031	3509012339.4009	3509012096.6177	0.4259	4.1223	-1.5976	1.2628	9.5930	0.8559	0.2327	-0.6383	0.4000	242783.2031	1.6651	-0.9176	-0.4916	-0.0740	5.8674	-7.7738	-0.8340	1.7311	0.5728	242783.2031	-2.3874	4.0260	0.0803	-0.2044	9.6358	-1.4098	0.3191	-0.7797	-0.2995	0.0000	0.0000
242792.9687	-0.8026	1.4809	-0.8198	-1.7022	9.1086	3.8742	-0.3105	-0.5728	-0.7679	242792.9687	-0.3906	3.6138	0.3197	0.5050	9.7211	0.4026	-0.2750	-0.6680	-0.4559	242792.9687	0.3382	0.3015	0.0909	-0.8005	4.4117	-8.7036	-0.3763	-0.0979	0.6256	242792.9687	1.8368	6.8183	-3.5366	-0.2701	9.4499	3.0940	0.1961	-0.6831	0.1499	242792.9687	3509012339.4107	3509012096.6177	0.4259	4.1223	-1.5976	1.4976	9.5922	0.7769	0.2408	-0.6319	0.3853	242792.9687	1.6651	-0.9176	-0.4916	0.0820	5.9411	-7.9376	-0.8180	1.7563	0.5469	242792.9687	-2.9585	6.6747	0.7700	-0.0452	9.6358	-1.4098	0.3043	-0.7950	-0.2949	0.0000	0.0000
242802.7344	0.3498	5.4276	-2.1699	-1.6233	9.2613	3.7967	-0.2933	-0.5476	-0.7701	242802.7344	-0.3906	3.6138	0.3197	0.4254	9.8772	0.3995	-0.2750	-0.6680	-0.4559	242802.7344	0.3382	0.3015	0.0909	-0.7226	4.2557	-8.6260	-0.3763	-0.0979	0.6256	242802.7344	1.8368	6.8183	-3.5366	-0.3475	9.5263	3.0940	0.1961	-0.6831	0.1499	242802.7344	3509012339.4205	3509012096.6177	0.4259	4.1223	-1.5976	1.6540	9.6700	0.7761	0.2408	-0.6170	0.3684	242802.7344	1.6651	-0.9176	-0.4916	0.1616	5.9427	-7.8596	-0.8180	1.7563	0.5469	242802.7344	-2.9585	6.6747	0.7700	-0.1248	9.6358	-1.4098	0.3358	-0.7567	-0.3041	0.0000	0.0000
242812.5000	0.3498	5.4276	-2.1699	-1.6225	9.1086	3.8734	-0.3048	-0.5553	-0.7549	242812.5000	-0.3906	3.6138	0.3197	0.4254	9.8772	0.3995	-0.2731	-0.6777	-0.4344	242812.5000	0.1026	-0.1568	0.1190	-0.7226	4.3348	-8.5499	-0.3561	-0.0875	0.6079	242812.5000	1.8368	6.8183	-3.5366	-0.1935	9.4499	3.0160	0.1961	-0.6996	0.1499	242812.5000	3509012339.4302	3509012096.6177	0.2350	2.9015	-0.8746	1.9670	9.5922	0.7769	0.2408	-0.6170	0.3684	242812.5000	0.9919	-0.3224	-0.7027	0.0827	6.0197	-7.8596	-0.8320	1.7248	0.5634	242812.5000	-2.9585	6.6747	0.7700	-0.0467	9.5578	-1.5646	0.3247	-0.7663	-0.3041	0.0000	0.0000
242822.2656	0.3498	5.4276	-2.1699	-1.8631	8.9558	3.7270	-0.2990	-0.5495	-0.7744	242822.2656	-0.8705	3.1075	0.0270	0.3458	9.7960	0.0866	-0.2519	-0.6738	-0.4559	242822.2656	0.1026	-0.1568	0.1190	-0.8005	4.2557	-8.6252	-0.3642	-0.0958	0.6035	242822.2656	1.8368	6.8183	-3.5366	-0.1193	9.5263	2.7057	0.1961	-0.7160	0.1686	242822.2656	3509012339.4400	3509012096.6177	0.2350	2.9015	-0.8746	1.9670	9.5930	0.8559	0.2265	-0.6468	0.4042	242822.2656	0.9919	-0.3224	-0.7027	0.2396	5.8641	-7.9392	-0.8220	1.7311	0.5845	242822.2656	-0.3670	8.2034	2.8484	0.1132	9.4822	-1.4861	0.3414	-0.7701	-0.2995	0.0000	0.0000
242832.0312	-0.1220	2.7781	-2.8691	-1.7842	8.9558	3.6510	-0.2876	-0.5320	-0.7701	242832.0312	-0.8705	3.1075	0.0270	0.4254	9.7195	0.2454	-0.2673	-0.6582	-0.4473	242832.0312	0.1026	-0.1568	0.1190	-0.6448	4.0988	-8.6252	-0.3662	-0.0958	0.6322	242832.0312	0.7347	6.1617	-4.0569	-0.1951	9.4499	2.8616	0.2118	-0.6914	0.1546	242832.0312	3509012339.4498	3509012096.6177	0.2350	2.9015	-0.8746	1.5758	9.5946	1.0139	0.2408	-0.6426	0.3937	242832.0312	0.9919	-0.3224	-0.7027	0.0039	6.0197	-7.8580	-0.8120	1.7164	0.5399	242832.0312	-0.3670	8.2034	2.8484	0.0344	9.5594	-1.4091	0.3061	-0.7682	-0.2949	0.0000	0.0000
242841.7969	-0.1220	2.7781	-2.8691	-1.7834	8.8795	3.7269	-0.2838	-0.5223	-0.7722	242841.7969	-0.8705	3.1075	0.0270	0.5050	9.7195	0.2454	-0.2673	-0.6582	-0.4473	242841.7969	-0.4076	0.0028	0.0649	-0.7226	4.2557	-8.6260	-0.3662	-0.0958	0.6322	242841.7969	0.7347	6.1617	-4.0569	-0.1154	9.4499	3.0924	0.2118	-0.6914	0.1546	242841.7969	3509012339.4595	3509012096.6177	1.0457	-1.3707	-0.5651	1.4193	9.6700	0.7761	0.2408	-0.6426	0.3937	242841.7969	0.5897	-0.3930	-0.3443	0.0039	6.0197	-7.8580	-0.8120	1.7164	0.5399	242841.7969	-0.3670	8.2034	2.8484	0.1921	9.5578	-1.5646	0.3377	-0.7452	-0.2926	0.0000	0.0000
242851.5625	-0.1220	2.7781	-2.8691	-1.7030	8.8795	3.8013	-0.2895	-0.5282	-0.7614	242851.5625	-1.6422	2.2382	-0.2606	0.5846	9.7195	0.2454	-0.2712	-0.6875	-0.4323	242851.5625	-0.4076	0.0028	0.0649	-0.8005	4.3341	-8.6260	-0.3501	-0.0583	0.6035	242851.5625	0.7347	6.1617	-4.0569	-0.1920	9.5263	3.1696	0.1843	-0.6831	0.1475	242851.5625	3509012339.4693	3509012096.6177	1.0457	-1.3707	-0.5651	1.2628	9.7493	0.9334	0.2367	-0.6213	0.3705	242851.5625	0.5897	-0.3930	-0.3443	0.0039	5.9427	-7.8565	-0.8260	1.7500	0.5704	242851.5625	1.2227	6.1450	3.6183	0.2709	9.6335	-1.6431	0.3191	-0.7816	-0.2995	0.0000	0.0000
242861.3281	1.8177	4.7839	-3.1596	-1.6240	8.8795	3.7253	-0.2800	-0.5243	-0.7787	242861.3281	-1.6422	2.2382	-0.2606	0.5846	9.7195	0.2454	-0.2500	-0.6641	-0.4581	242861.3281	-0.4076	0.0028	0.0649	-0.7226	4.2549	-8.7028	-0.3682	-0.1104	0.5925	242861.3281	1.5766	0.0770	-3.1001	-0.1912	9.2971	3.2491	0.1882	-0.7387	0.1733	242861.3281	3509012339.4791	3509012096.6177	1.0457	-1.3707	-0.5651	1.1846	9.7485	0.8544	0.2388	-0.6553	0.3958	242861.3281	0.5897	-0.3930	-0.3443	0.0820	5.9411	-7.9376	-0.8280	1.7017	0.5751	242861.3281	1.2227	6.1450	3.6183	0.3513	9.5578	-1.5646	0.3377	-0.7663	-0.2903	0.0000	0.0000
242871.0937	1.8177	4.7839	-3.1596	-1.7030	9.0322	3.7998	-0.2857	-0.5184	-0.7484	242871.0937	-1.6422	2.2382	-0.2606	0.5050	9.7195	0.2454	-0.2673	-0.6719	-0.4452	242871.0937	-0.4076	0.0028	0.0649	-0.7226	4.1765	-8.7020	-0.3682	-0.1104	0.5925	242871.0937	1.5766	0.0770	-3.1001	-0.2686	9.2971	3.2499	0.2098	-0.6914	0.1569	242871.0937	3509012339.4888	3509012096.6177	1.0560	1.3802	-1.0583	1.2628	9.6708	0.8551	0.2510	-0.6447	0.3958	242871.0937	0.2591	-0.1892	-0.6220	0.0023	6.0166	-8.0171	-0.8280	1.7017	0.5751	242871.0937	1.2227	6.1450	3.6183	0.2709	9.7100	-1.6439	0.3173	-0.7490	-0.2972	0.0000	0.0000
242880.8594	1.8177	4.7839	-3.1596	-1.7030	8.9558	3.8006	-0.2914	-0.5398	-0.7744	242880.8594	-1.6422	2.2382	-0.2606	0.6642	9.7983	0.3225	-0.2673	-0.6719	-0.4452	242880.8594	-0.1977	-0.0723	-0.1204	-0.7226	4.2549	-8.7028	-0.3682	-0.0771	0.6454	242880.8594	1.5766	0.0770	-3.1001	-0.1138	9.4499	3.2468	0.2098	-0.6914	0.1569	242880.8594	3509012339.4986	3509012096.6177	1.0560	1.3802	-1.0583	1.4193	9.7454	0.5383	0.2510	-0.6447	0.3958	242880.8594	0.2591	-0.1892	-0.6220	0.0023	6.0166	-8.0171	-0.8240	1.7332	0.5352	242880.8594	0.8269	1.2260	2.0733	0.2709	9.6335	-1.6431	0.3432	-0.7510	-0.2857	0.0000	0.0000
242890.6250	1.8177	4.7839	-3.1596	-1.6218	8.9558	3.9502	-0.3010	-0.5379	-0.7527	242890.6250	-0.6224	0.0192	-0.0264	0.5846	9.7968	0.1652	-0.2673	-0.6777	-0.4366	242890.6250	-0.1977	-0.0723	-0.1204	-0.8005	4.3333	-8.7028	-0.3581	-0.1208	0.6101	242890.6250	-1.3929	1.0350	-0.4707	-0.1131	9.5263	3.3232	0.1961	-0.6914	0.1452	242890.6250	3509012339.5084	3509012096.6177	1.0560	1.3802	-1.0583	1.4976	9.7469	0.6964	0.2429	-0.6213	0.3684	242890.6250	0.2591	-0.1892	-0.6220	0.1608	5.8641	-7.9377	-0.8460	1.7038	0.5657	242890.6250	0.8269	1.2260	2.0733	0.2701	9.7092	-1.7216	0.3321	-0.7375	-0.2903	0.0000	0.0000
242900.3906	1.7737	7.4079	-2.0477	-1.4631	9.1086	3.8718	-0.2933	-0.5476	-0.7766	242900.3906	-0.6224	0.0192	-0.0264	0.7438	9.7968	0.1652	-0.2481	-0.6523	-0.4559	242900.3906	-0.1977	-0.0723	-0.1204	-0.7226	4.2549	-8.7028	-0.3742	-0.0646	0.6167	242900.3906	-1.3929	1.0350	-0.4707	0.0394	9.4499	3.0909	0.1824	-0.7284	0.1733	242900.3906	3509012339.5181	3509012096.6177	1.0560	1.3802	-1.0583	1.6540	9.7477	0.7754	0.2306	-0.6234	0.3874	242900.3906	0.6215	-0.4568	-0.2845	0.0812	5.9395	-8.0172	-0.8180	1.7395	0.5704	242900.3906	0.8269	1.2260	2.0733	0.1109	9.7092	-1.7216	0.3340	-0.7720	-0.2926	0.0000	0.0000
242910.1562	1.7737	7.4079	-2.0477	-1.3834	8.9558	3.8726	-0.2971	-0.5340	-0.7527	242910.1562	-0.6224	0.0192	-0.0264	0.6642	9.7203	0.3240	-0.2731	-0.6680	-0.4516	242910.1562	0.0016	0.0788	-0.1057	-0.7226	4.2557	-8.6260	-0.3742	-0.0646	0.6167	242910.1562	-1.3929	1.0350	-0.4707	0.0394	9.4499	3.0909	0.1824	-0.7284	0.1733	242910.1562	3509012339.5279	3509012096.6177	-0.1516	-1.8784	-1.4432	1.4976	9.7485	0.8544	0.2306	-0.6234	0.3874	242910.1562	0.6215	-0.4568	-0.2845	0.0812	5.8626	-8.0156	-0.8180	1.7395	0.5704	242910.1562	0.8269	1.2260	2.0733	0.1109	9.7092	-1.7216	0.3173	-0.7395	-0.2949	0.0000	0.0000
242919.9219	1.7737	7.4079	-2.0477	-1.3053	9.0322	3.7206	-0.2762	-0.5243	-0.7766	242919.9219	0.1216	-1.3496	1.4779	0.7438	9.7968	0.1652	-0.2731	-0.6680	-0.4516	242919.9219	0.0016	0.0788	-0.1057	-0.6448	4.2549	-8.7036	-0.3803	-0.0875	0.6344	242919.9219	-0.4592	-2.0212	1.8996	0.1934	9.4499	3.0121	0.1784	-0.7325	0.1569	242919.9219	3509012339.5377	3509012096.6177	-0.1516	-1.8784	-1.4432	1.4193	9.5930	0.8559	0.2490	-0.6362	0.3958	242919.9219	0.6215	-0.4568	-0.2845	0.0811	6.0165	-8.0187	-0.8140	1.7563	0.5469	242919.9219	1.7907	-1.9525	-0.4202	0.1101	9.6320	-1.7986	0.3469	-0.7471	-0.2926	0.0000	0.0000
242929.6875	0.1745	6.4573	0.1058	-1.3045	9.1850	3.7943	-0.2838	-0.5243	-0.7484	242929.6875	0.1216	-1.3496	1.4779	0.8234	9.6407	0.1684	-0.2577	-0.6602	-0.4323	242929.6875	0.0016	0.0788	-0.1057	-0.7226	4.3341	-8.6268	-0.3602	-0.1062	0.6167	242929.6875	-0.4592	-2.0212	1.8996	0.0386	9.3735	3.0144	0.2000	-0.6790	0.1475	242929.6875	3509012339.5474	3509012096.6177	-0.1516	-1.8784	-1.4432	1.6540	9.6723	1.0132	0.2510	-0.6000	0.3600	242929.6875	0.6215	-0.4568	-0.2845	-0.0764	5.9396	-8.0140	-0.8300	1.7206	0.5798	242929.6875	1.7907	-1.9525	-0.4202	0.1117	9.6335	-1.6431	0.3228	-0.7414	-0.2903	0.0000	0.0000
242939.4531	0.1745	6.4573	0.1058	-1.2233	9.0322	3.9454	-0.2800	-0.5262	-0.7896	242939.4531	0.1216	-1.3496	1.4779	0.7438	9.7195	0.2454	-0.2538	-0.6543	-0.4516	242939.4531	0.4677	-0.0166	-0.1721	-0.7226	4.3341	-8.6268	-0.3602	-0.1062	0.6167	242939.4531	-0.4592	-2.0212	1.8996	-0.0365	9.3735	3.2468	0.2020	-0.7016	0.1803	242939.4531	3509012339.5572	3509012096.6177	0.3595	-2.4337	-0.6217	1.6540	9.6708	0.8551	0.2367	-0.6085	0.3768	242939.4531	0.7127	-0.5899	-0.5264	0.0032	5.9412	-7.9361	-0.8140	1.7395	0.5751	242939.4531	1.7907	-1.9525	-0.4202	0.1109	9.6327	-1.7209	0.3469	-0.7490	-0.2995	0.0000	0.0000
242949.2187	0.1745	6.4573	0.1058	-1.3053	9.0322	3.7206	-0.2819	-0.5146	-0.7614	242949.2187	-0.8028	-2.6603	2.5798	0.8234	9.7187	0.1668	-0.2538	-0.6543	-0.4516	242949.2187	0.4677	-0.0166	-0.1721	-0.6448	4.2541	-8.7804	-0.3682	-0.0979	0.6123	242949.2187	-0.4592	-2.0212	1.8996	0.0402	9.3735	3.1688	0.2020	-0.7016	0.1803	242949.2187	3509012339.5670	3509012096.6177	0.3595	-2.4337	-0.6217	1.6540	9.6708	0.8551	0.2367	-0.6085	0.3768	242949.2187	0.7127	-0.5899	-0.5264	-0.0757	5.9412	-7.9345	-0.8140	1.7395	0.5751	242949.2187	1.0570	-2.9363	-0.7848	0.0321	9.7100	-1.6439	0.3117	-0.7682	-0.2949	0.0000	0.0000
242958.9844	-0.5089	-1.3450	2.1846	-1.3842	9.1086	3.7958	-0.2914	-0.5359	-0.7787	242958.9844	-0.8028	-2.6603	2.5798	0.7438	9.6431	0.4042	-0.2731	-0.6895	-0.4516	242958.9844	0.4677	-0.0166	-0.1721	-0.7226	4.2557	-8.6260	-0.3783	-0.1042	0.6211	242958.9844	0.5817	-6.0503	1.7969	-0.1154	9.5263	3.0917	0.1980	-0.7263	0.1616	242958.9844	3509012339.5767	3509012096.6177	0.3595	-2.4337	-0.6217	1.7323	9.7469	0.6964	0.2347	-0.6298	0.4021	242958.9844	0.7127	-0.5899	-0.5264	0.0804	5.8610	-8.0952	-0.8100	1.7185	0.5352	242958.9844	1.0570	-2.9363	-0.7848	0.1125	9.6343	-1.5654	0.3377	-0.7510	-0.2903	0.0000	0.0000
242968.7500	-0.5089	-1.3450	2.1846	-1.3045	9.0322	3.7958	-0.2952	-0.5301	-0.7505	242968.7500	-0.8028	-2.6603	2.5798	0.6642	9.7983	0.3225	-0.2577	-0.6562	-0.4366	242968.7500	0.7305	-0.4669	-0.0272	-0.7226	4.3356	-8.4731	-0.3642	-0.0979	0.6101	242968.7500	0.5817	-6.0503	1.7969	-0.1154	9.5263	3.0917	0.2078	-0.6996	0.1405	242968.7500	3509012339.5865	3509012096.6177	0.4784	-3.7798	0.6055	1.8105	9.5930	0.8559	0.2449	-0.6106	0.3705	242968.7500	1.2897	-0.3988	-0.5756	0.0023	6.0935	-8.0187	-0.8280	1.7416	0.5798	242968.7500	1.0570	-2.9363	-0.7848	0.0321	9.5571	-1.6424	0.3135	-0.7529	-0.2995	0.0000	0.0000
242978.5156	-0.5089	-1.3450	2.1846	-1.3045	9.1086	3.7950	-0.2895	-0.5398	-0.7831	242978.5156	0.4061	-4.7533	3.2021	0.4254	9.6431	0.4042	-0.2577	-0.6699	-0.4581	242978.5156	0.7305	-0.4669	-0.0272	-0.7226	4.4110	-8.7812	-0.3642	-0.0979	0.6101	242978.5156	0.5817	-6.0503	1.7969	0.0409	9.5263	3.2445	0.1784	-0.7387	0.1733	242978.5156	3509012339.5963	3509012096.6177	0.4784	-3.7798	0.6055	1.8105	9.6708	0.8551	0.2449	-0.6106	0.3705	242978.5156	1.2897	-0.3988	-0.5756	-0.0757	5.9412	-7.9345	-0.8180	1.7164	0.5728	242978.5156	0.0993	-4.1925	-0.7162	0.0321	9.5571	-1.6424	0.3451	-0.7663	-0.3041	0.0000	0.0000
242988.2812	-1.7923	-4.6614	2.0559	-1.3060	9.1086	3.6447	-0.2933	-0.5553	-0.7549	242988.2812	0.4061	-4.7533	3.2021	0.2662	9.7195	0.2454	-0.2577	-0.6699	-0.4581	242988.2812	0.7305	-0.4669	-0.0272	-0.8783	4.3333	-8.7020	-0.3541	-0.0854	0.6013	242988.2812	1.8062	-3.6769	0.2516	-0.0349	9.5263	3.3997	0.1784	-0.7387	0.1733	242988.2812	3509012339.6060	3509012096.6177	0.4784	-3.7798	0.6055	1.6540	9.5938	0.9349	0.2408	-0.6298	0.3684	242988.2812	1.2897	-0.3988	-0.5756	0.0032	5.9412	-7.9361	-0.8180	1.7164	0.5728	242988.2812	0.0993	-4.1925	-0.7162	0.1928	9.6351	-1.4876	0.3321	-0.7605	-0.2995	0.0000	0.0000
242998.0469	-1.7923	-4.6614	2.0559	-1.3850	9.0322	3.7214	-0.2971	-0.5340	-0.7657	242998.0469	0.4061	-4.7533	3.2021	0.1070	9.7976	0.2439	-0.2654	-0.6797	-0.4473	242998.0469	0.7305	-0.4669	-0.0272	-0.7226	4.2541	-8.7796	-0.3843	-0.1354	0.6167	242998.0469	1.8062	-3.6769	0.2516	0.0401	9.5263	3.1673	0.1980	-0.6934	0.1569	242998.0469	3509012339.6158	3509012096.6177	0.5073	-3.9024	1.9674	1.6540	9.6700	0.7761	0.2388	-0.6255	0.4000	242998.0469	0.9005	-0.5534	-0.4723	0.0040	5.8658	-7.8550	-0.8060	1.7542	0.5399	242998.0469	0.0993	-4.1925	-0.7162	0.1109	9.6327	-1.7209	0.3302	-0.7471	-0.3018	0.0000	0.0000
243007.8125	-1.7923	-4.6614	2.0559	-1.2248	8.9558	3.7958	-0.2876	-0.5262	-0.7592	243007.8125	0.4061	-4.7533	3.2021	0.1866	9.7195	0.2454	-0.2673	-0.6777	-0.4323	243007.8125	-0.1542	-0.1620	-0.2586	-0.7226	4.3325	-8.7804	-0.3843	-0.1354	0.6167	243007.8125	1.8062	-3.6769	0.2516	0.0394	9.5263	3.0901	0.1980	-0.7037	0.1405	243007.8125	3509012339.6256	3509012096.6177	0.5073	-3.9024	1.9674	1.6540	9.6716	0.9341	0.2367	-0.6468	0.3705	243007.8125	0.9005	-0.5534	-0.4723	0.0032	5.8642	-7.9345	-0.8380	1.7290	0.5728	243007.8125	-0.6622	-5.9180	-0.8070	0.1125	9.5578	-1.5646	0.3284	-0.7375	-0.3041	0.0000	0.0000
243017.5781	-1.7923	-4.6614	2.0559	-1.3850	9.1086	3.7206	-0.2781	-0.5379	-0.7874	243017.5781	0.1099	-4.1357	2.1903	0.2662	9.7195	0.2454	-0.2615	-0.6543	-0.4452	243017.5781	-0.1542	-0.1620	-0.2586	-0.8783	4.4110	-8.7796	-0.3561	-0.0688	0.6256	243017.5781	-0.1990	-5.5090	-0.1500	-0.1169	9.3735	2.9388	0.1980	-0.7037	0.1405	243017.5781	3509012339.6353	3509012096.6177	0.5073	-3.9024	1.9674	1.4193	9.6723	1.0132	0.2367	-0.6468	0.3705	243017.5781	0.9005	-0.5534	-0.4723	0.0024	5.9396	-8.0156	-0.8080	1.7290	0.5587	243017.5781	-0.6622	-5.9180	-0.8070	0.0321	9.7100	-1.6439	0.3525	-0.7701	-0.3018	0.0000	0.0000
243027.3437	-1.6425	-1.9320	0.4811	-1.3842	8.8795	3.7981	-0.2838	-0.5282	-0.7549	243027.3437	0.1099	-4.1357	2.1903	0.2662	9.7187	0.1668	-0.2615	-0.6543	-0.4452	243027.3437	-0.1542	-0.1620	-0.2586	-0.7226	4.4117	-8.7044	-0.3783	-0.0688	0.6057	243027.3437	-0.1990	-5.5090	-0.1500	-0.1162	9.4499	3.0152	0.2000	-0.7099	0.1710	243027.3437	3509012339.6451	3509012096.6177	0.5073	-3.9024	1.9674	1.3411	9.7485	0.8544	0.2367	-0.5957	0.3705	243027.3437	0.9005	-0.5534	-0.4723	0.0039	6.0967	-7.8596	-0.8080	1.7290	0.5587	243027.3437	-0.6622	-5.9180	-0.8070	0.0336	9.7115	-1.4884	0.3265	-0.7739	-0.2949	0.0000	0.0000
243037.1094	-1.6425	-1.9320	0.4811	-1.5451	8.8795	3.6493	-0.2819	-0.5417	-0.7766	243037.1094	0.1099	-4.1357	2.1903	0.1866	9.7187	0.1668	-0.2769	-0.6992	-0.4473	243037.1094	-1.1520	0.5320	0.0472	-0.7226	4.2549	-8.7028	-0.3722	-0.0750	0.6256	243037.1094	-0.1990	-5.5090	-0.1500	-0.1928	9.4499	3.0932	0.2118	-0.6914	0.1639	243037.1094	3509012339.6548	3509012096.6177	1.4277	-0.9619	2.5941	1.3411	9.5922	0.7769	0.2347	-0.6426	0.4063	243037.1094	0.0134	-0.6015	-0.2198	-0.0749	6.0198	-7.8565	-0.8220	1.7542	0.5493	243037.1094	-0.6622	-5.9180	-0.8070	0.1132	9.7115	-1.4884	0.3321	-0.7663	-0.3018	0.0000	0.0000
243046.8750	-1.6425	-1.9320	0.4811	-1.7030	8.8795	3.8013	-0.3010	-0.5204	-0.7462	243046.8750	-0.0792	-4.7326	1.3444	0.2662	9.7976	0.2439	-0.2577	-0.6387	-0.4301	243046.8750	-1.1520	0.5320	0.0472	-0.7226	4.3341	-8.6268	-0.3722	-0.0750	0.6256	243046.8750	0.5510	-8.2502	-0.6955	-0.3475	9.4499	3.0947	0.2020	-0.6790	0.1499	243046.8750	3509012339.6646	3509012096.6177	1.4277	-0.9619	2.5941	1.4193	9.5930	0.8559	0.2347	-0.6426	0.4063	243046.8750	0.0134	-0.6015	-0.2198	0.0039	6.0967	-7.8596	-0.8260	1.7143	0.5822	243046.8750	0.1787	-7.2348	-0.3860	-0.1256	9.7115	-1.4884	0.3265	-0.7490	-0.2926	0.0000	0.0000
243056.6406	-1.8298	-9.1716	1.6643	-1.7819	8.9558	3.8766	-0.2971	-0.5282	-0.7766	243056.6406	-0.0792	-4.7326	1.3444	0.2662	9.7195	0.2454	-0.2692	-0.6738	-0.4559	243056.6406	-1.1520	0.5320	0.0472	-0.7226	4.2533	-8.8564	-0.3763	-0.0729	0.6366	243056.6406	0.5510	-8.2502	-0.6955	-0.3468	9.4499	3.1719	0.2020	-0.6790	0.1499	243056.6406	3509012339.6744	3509012096.6177	1.4277	-0.9619	2.5941	1.1846	9.5906	0.6189	0.2347	-0.6319	0.3768	243056.6406	0.0134	-0.6015	-0.2198	0.0031	6.0181	-7.9376	-0.8120	1.7311	0.5657	243056.6406	0.1787	-7.2348	-0.3860	-0.2856	9.7107	-1.5661	0.3247	-0.7874	-0.3065	0.0000	0.0000
243066.4062	-1.8298	-9.1716	1.6643	-1.7819	8.7267	3.8788	-0.2914	-0.5184	-0.7484	243066.4062	-0.0792	-4.7326	1.3444	0.3458	9.7983	0.3225	-0.2692	-0.6738	-0.4559	243066.4062	-0.6105	0.4285	-0.4153	-0.7226	4.2549	-8.7028	-0.3682	-0.0729	0.6123	243066.4062	0.5510	-8.2502	-0.6955	-0.5797	9.3735	3.0978	0.1941	-0.7305	0.1663	243066.4062	3509012339.6841	3509012096.6177	1.2571	-0.4711	2.2927	1.4193	9.5914	0.6979	0.2388	-0.6255	0.3705	243066.4062	-0.9698	0.0603	-0.2119	0.1608	5.9411	-7.9392	-0.8120	1.7311	0.5657	243066.4062	0.1787	-7.2348	-0.3860	-0.2864	9.8629	-1.6454	0.3173	-0.7854	-0.2995	0.0000	0.0000
243076.1719	-1.8298	-9.1716	1.6643	-1.7015	8.8795	3.9517	-0.2952	-0.5262	-0.7614	243076.1719	-0.2154	-4.5231	0.3690	0.2662	9.7195	0.2454	-0.2654	-0.6777	-0.4473	243076.1719	-0.6105	0.4285	-0.4153	-0.8005	4.3341	-8.6260	-0.3682	-0.0729	0.6123	243076.1719	0.5510	-8.2502	-0.6955	-0.3498	9.3735	2.8639	0.2118	-0.6955	0.1569	243076.1719	3509012339.6939	3509012096.6177	1.2571	-0.4711	2.2927	1.1846	9.5914	0.6979	0.2347	-0.6426	0.3958	243076.1719	-0.9698	0.0603	-0.2119	0.0827	6.0197	-7.8596	-0.8180	1.7122	0.5423	243076.1719	-2.1657	-6.5234	-0.5650	-0.2060	9.6343	-1.5654	0.3173	-0.7778	-0.3088	0.0000	0.0000
243085.9375	-2.1867	-0.9907	3.6069	-1.8616	8.9558	3.8774	-0.2819	-0.5340	-0.7614	243085.9375	-0.2154	-4.5231	0.3690	0.1866	9.7195	0.2454	-0.2673	-0.7070	-0.4280	243085.9375	-0.6105	0.4285	-0.4153	-0.8005	4.2557	-8.6252	-0.3803	-0.0750	0.6233	243085.9375	0.3214	-2.1910	-1.5214	-0.5031	9.4499	3.0191	0.2137	-0.6770	0.1429	243085.9375	3509012339.7037	3509012096.6177	1.2571	-0.4711	2.2927	1.0281	9.6708	0.8551	0.2347	-0.6426	0.3958	243085.9375	-0.9698	0.0603	-0.2119	0.0827	5.9427	-7.8581	-0.8260	1.7374	0.5892	243085.9375	-2.1657	-6.5234	-0.5650	0.0313	9.7856	-1.7224	0.3191	-0.7625	-0.2972	0.0000	0.0000
243095.7031	-2.1867	-0.9907	3.6069	-1.7037	8.8795	3.7261	-0.2857	-0.5398	-0.7831	243095.7031	-0.2154	-4.5231	0.3690	0.1866	9.6415	0.2470	-0.2596	-0.7012	-0.4516	243095.7031	-0.6105	0.4285	-0.4153	-0.7226	4.3341	-8.6268	-0.3823	-0.0937	0.6366	243095.7031	0.3214	-2.1910	-1.5214	-0.4234	9.5263	3.2491	0.2137	-0.6770	0.1429	243095.7031	3509012339.7134	3509012096.6177	2.7799	1.4241	0.6728	0.8716	9.5922	0.7769	0.2429	-0.6489	0.3916	243095.7031	-1.0790	0.0190	-0.2082	0.1607	6.0181	-7.9407	-0.8160	1.7248	0.5587	243095.7031	-2.1657	-6.5234	-0.5650	-0.1264	9.6343	-1.5654	0.3191	-0.7854	-0.3111	0.0000	0.0000
243105.4687	-2.1867	-0.9907	3.6069	-1.7030	9.0322	3.7998	-0.2762	-0.5398	-0.7636	243105.4687	-0.1391	-2.2600	-0.6225	0.1866	9.7195	0.2454	-0.2596	-0.7012	-0.4516	243105.4687	-1.4987	0.5596	-0.3899	-0.8005	4.1772	-8.6244	-0.3722	-0.0854	0.6145	243105.4687	0.3214	-2.1910	-1.5214	-0.3467	9.3735	3.1727	0.1902	-0.7243	0.1663	243105.4687	3509012339.7232	3509012096.6177	2.7799	1.4241	0.6728	0.7934	9.5152	0.8567	0.2245	-0.6489	0.3684	243105.4687	-1.0790	0.0190	-0.2082	-0.0757	6.1721	-7.9391	-0.8160	1.7248	0.5587	243105.4687	-0.5396	-6.7504	-0.7210	-0.1263	9.4814	-1.5638	0.3135	-0.7567	-0.2949	0.0000	0.0000
243115.2344	-1.4963	-8.3618	4.8455	-1.7819	9.1086	3.8750	-0.2876	-0.5437	-0.7722	243115.2344	-0.1391	-2.2600	-0.6225	0.2662	9.7983	0.3225	-0.2846	-0.6738	-0.4430	243115.2344	-1.4987	0.5596	-0.3899	-0.8005	4.4117	-8.7036	-0.3722	-0.0854	0.6145	243115.2344	1.0256	1.5280	-0.4430	-0.5023	9.2971	3.0978	0.2078	-0.7181	0.1593	243115.2344	3509012339.7330	3509012096.6177	2.7799	1.4241	0.6728	0.6369	9.5152	0.8567	0.2245	-0.6489	0.3684	243115.2344	-1.0790	0.0190	-0.2082	0.1607	6.0951	-7.9423	-0.8180	1.7458	0.5399	243115.2344	-0.5396	-6.7504	-0.7210	-0.0467	9.6343	-1.5654	0.3247	-0.7644	-0.3088	0.0000	0.0000
243125.0000	-1.4963	-8.3618	4.8455	-1.7037	9.1850	3.7231	-0.2819	-0.5398	-0.7722	243125.0000	-0.1391	-2.2600	-0.6225	0.1866	9.7211	0.4026	-0.2654	-0.6426	-0.4258	243125.0000	-1.4987	0.5596	-0.3899	-0.7226	4.3325	-8.7804	-0.3944	-0.1208	0.6101	243125.0000	1.0256	1.5280	-0.4430	-0.6570	9.0680	3.1017	0.2078	-0.7181	0.1593	243125.0000	3509012339.7427	3509012096.6177	5.3178	9.9728	0.0078	0.2457	9.5938	0.9349	0.2408	-0.6468	0.3916	243125.0000	-1.0790	0.0190	-0.2082	-0.0765	6.1706	-8.0186	-0.8400	1.7269	0.5915	243125.0000	-0.5396	-6.7504	-0.7210	0.0329	9.4814	-1.5638	0.3228	-0.7414	-0.2926	0.0000	0.0000
243134.7656	-1.4963	-8.3618	4.8455	-1.7022	9.0322	3.8750	-0.2971	-0.5301	-0.7636	243134.7656	-0.1391	-2.2600	-0.6225	0.1070	9.7203	0.3240	-0.2654	-0.6426	-0.4258	243134.7656	-2.0483	1.0124	-0.5168	-0.7226	4.3325	-8.7804	-0.3742	-0.1146	0.6278	243134.7656	1.0256	1.5280	-0.4430	-0.7337	9.3735	3.1766	0.2000	-0.7222	0.1311	243134.7656	3509012339.7525	3509012096.6177	5.3178	9.9728	0.0078	0.6369	9.7461	0.6174	0.2510	-0.6489	0.3874	243134.7656	-2.9267	-1.3183	0.7621	-0.0757	6.0182	-7.9360	-0.8400	1.7269	0.5915	243134.7656	0.5212	-8.0369	0.4035	-0.0460	9.4822	-1.4861	0.3265	-0.7433	-0.2995	0.0000	0.0000
243144.5312	-1.4963	-8.3618	4.8455	-1.8639	9.1086	3.6502	-0.2952	-0.5223	-0.7549	243144.5312	-0.3195	-0.5813	-1.4308	0.1070	9.7976	0.2439	-0.2615	-0.6973	-0.4516	243144.5312	-2.0483	1.0124	-0.5168	-0.7226	4.3325	-8.7804	-0.3742	-0.1146	0.6278	243144.5312	5.8625	8.4345	0.7855	-0.5007	9.4499	3.2507	0.1843	-0.7078	0.1780	243144.5312	3509012339.7623	3509012096.6177	5.3178	9.9728	0.0078	1.2628	9.7485	0.8544	0.2531	-0.6277	0.3600	243144.5312	-2.9267	-1.3183	0.7621	0.0015	6.0150	-8.0967	-0.8000	1.7353	0.5493	243144.5312	0.5212	-8.0369	0.4035	-0.1263	9.4049	-1.5631	0.3340	-0.7414	-0.3065	0.0000	0.0000
243154.2969	-2.2011	-12.3131	5.4682	-1.9428	9.0322	3.7270	-0.3048	-0.5340	-0.7527	243154.2969	-0.3195	-0.5813	-1.4308	0.0274	9.8748	0.1637	-0.2615	-0.6562	-0.4409	243154.2969	-2.0483	1.0124	-0.5168	-0.8005	4.3349	-8.5491	-0.3541	-0.0792	0.6101	243154.2969	5.8625	8.4345	0.7855	-0.6586	9.5263	2.9427	0.1941	-0.7263	0.1593	243154.2969	3509012339.7720	3509012096.6177	3.4327	8.4786	-2.6109	1.8105	9.7477	0.7754	0.2531	-0.6277	0.3600	243154.2969	-2.9267	-1.3183	0.7621	-0.1545	5.9412	-7.9329	-0.8240	1.7479	0.5493	243154.2969	0.5212	-8.0369	0.4035	-0.2824	9.5609	-1.2536	0.3265	-0.7471	-0.3111	0.0000	0.0000
243164.0625	-2.2011	-12.3131	5.4682	-1.9420	8.8795	3.8037	-0.2914	-0.5262	-0.7636	243164.0625	-0.3195	-0.5813	-1.4308	0.0274	9.7999	0.4797	-0.2673	-0.6406	-0.4280	243164.0625	-2.5499	1.5981	-1.1749	-0.9562	4.3341	-8.6244	-0.3581	-0.0896	0.6079	243164.0625	5.8625	8.4345	0.7855	-0.5031	9.5263	3.0183	0.1941	-0.7263	0.1593	243164.0625	3509012339.7818	3509012096.6177	3.4327	8.4786	-2.6109	2.1235	9.8286	1.0906	0.2367	-0.6277	0.3811	243164.0625	-1.8825	-1.2492	0.6099	-0.0748	5.7888	-7.8518	-0.8240	1.7122	0.5751	243164.0625	0.5212	-8.0369	0.4035	-0.2832	9.6366	-1.3321	0.3247	-0.7471	-0.2995	0.0000	0.0000
243173.8281	-2.2011	-12.3131	5.4682	-1.7030	8.8795	3.8013	-0.2876	-0.5379	-0.7722	243173.8281	-2.3824	5.2395	-2.8662	0.1070	9.7983	0.3225	-0.2673	-0.6406	-0.4280	243173.8281	-2.5499	1.5981	-1.1749	-0.8005	4.2541	-8.7788	-0.3722	-0.0854	0.6344	243173.8281	4.5921	10.4233	0.3933	-0.5038	9.6026	2.9404	0.2118	-0.7078	0.1358	243173.8281	3509012339.7916	3509012096.6177	3.4327	8.4786	-2.6109	2.0452	9.7501	1.0124	0.2429	-0.6383	0.3937	243173.8281	-1.8825	-1.2492	0.6099	0.0047	5.9443	-7.7769	-0.8240	1.7122	0.5751	243173.8281	13.4495	-13.0619	-1.2654	-0.1248	9.7123	-1.4106	0.3191	-0.7452	-0.3111	0.0000	0.0000
243183.5937	-3.1694	-2.8219	5.4493	-1.7819	8.8795	3.8773	-0.2857	-0.5398	-0.7636	243183.5937	-2.3824	5.2395	-2.8662	0.2662	9.8772	0.3995	-0.2538	-0.6855	-0.4538	243183.5937	-2.5499	1.5981	-1.1749	-0.8005	4.2549	-8.7020	-0.3722	-0.0854	0.6344	243183.5937	4.5921	10.4233	0.3933	-0.5031	9.6026	3.0176	0.1902	-0.6955	0.1710	243183.5937	3509012339.8013	3509012096.6177	3.4327	8.4786	-2.6109	1.7323	9.5962	1.1719	0.2429	-0.6383	0.3937	243183.5937	-1.8825	-1.2492	0.6099	0.0039	5.9427	-7.8565	-0.8060	1.7479	0.5563	243183.5937	13.4495	-13.0619	-1.2654	0.0359	9.7903	-1.2559	0.3451	-0.7375	-0.3111	0.0000	0.0000
243193.3594	-3.1694	-2.8219	5.4493	-1.7030	8.8795	3.8013	-0.2914	-0.5515	-0.7657	243193.3594	-2.3824	5.2395	-2.8662	0.3458	9.8748	0.1637	-0.2712	-0.6992	-0.4430	243193.3594	-2.5499	1.5981	-1.1749	-0.6448	4.1765	-8.7028	-0.3581	-0.0563	0.6101	243193.3594	4.5921	10.4233	0.3933	-0.5031	9.6026	3.0176	0.1843	-0.7243	0.1710	243193.3594	3509012339.8111	3509012096.6177	0.5835	3.9984	-2.5944	1.4976	9.5946	1.0139	0.2429	-0.6064	0.3621	243193.3594	-1.6605	-0.7369	0.9588	0.0015	6.0919	-8.0982	-0.8180	1.7143	0.5423	243193.3594	13.4495	-13.0619	-1.2654	0.0367	9.5617	-1.1758	0.3173	-0.7567	-0.3111	0.0000	0.0000
243203.1250	-3.1694	-2.8219	5.4493	-1.7007	9.0322	4.0254	-0.2819	-0.5437	-0.7787	243203.1250	-3.7254	10.6658	-4.2364	0.4254	9.7983	0.3225	-0.2673	-0.6602	-0.4151	243203.1250	-1.8169	3.5220	-1.8776	-0.6448	4.3333	-8.7044	-0.3662	-0.0583	0.6079	243203.1250	4.5921	10.4233	0.3933	-0.3475	9.5263	3.0940	0.1843	-0.7243	0.1710	243203.1250	3509012339.8209	3509012096.6177	0.5835	3.9984	-2.5944	1.4976	9.6684	0.6181	0.2388	-0.6106	0.3684	243203.1250	-1.6605	-0.7369	0.9588	0.0827	6.0197	-7.8596	-0.8380	1.7395	0.5845	243203.1250	-0.5583	-8.5061	-1.0687	-0.2028	9.6374	-1.2543	0.3284	-0.7414	-0.3041	0.0000	0.0000
243212.8906	-0.1917	-7.6385	7.3266	-1.8601	9.1850	4.0255	-0.3048	-0.5301	-0.7614	243212.8906	-3.7254	10.6658	-4.2364	0.5846	9.6423	0.3256	-0.2673	-0.6602	-0.4151	243212.8906	-1.8169	3.5220	-1.8776	-0.6448	4.2541	-8.7804	-0.3662	-0.0583	0.6079	243212.8906	-0.8419	10.2169	0.4731	-0.1951	9.4499	2.8616	0.1980	-0.7119	0.1358	243212.8906	3509012339.8306	3509012096.6177	0.5835	3.9984	-2.5944	1.7323	9.6731	1.0922	0.2306	-0.6383	0.3916	243212.8906	-1.6605	-0.7369	0.9588	-0.1552	5.8626	-8.0109	-0.8380	1.7395	0.5845	243212.8906	-0.5583	-8.5061	-1.0687	-0.2825	9.7903	-1.2559	0.3173	-0.7490	-0.3111	0.0000	0.0000
243222.6562	-0.1917	-7.6385	7.3266	-1.7820	9.4141	3.8720	-0.2971	-0.5301	-0.7636	243222.6562	-3.7254	10.6658	-4.2364	0.6642	9.7991	0.4011	-0.2692	-0.6758	-0.4516	243222.6562	-1.8169	3.5220	-1.8776	-0.7226	4.2533	-8.8564	-0.3742	-0.0750	0.6366	243222.6562	-0.8419	10.2169	0.4731	-0.1966	9.3735	2.7080	0.1980	-0.7078	0.1593	243222.6562	3509012339.8404	3509012096.6177	1.0954	5.4300	-1.6918	1.5758	9.5930	0.8559	0.2306	-0.6383	0.3916	243222.6562	-2.6906	-0.3311	0.9556	0.0039	6.0967	-7.8596	-0.8080	1.7080	0.5423	243222.6562	-0.5583	-8.5061	-1.0687	-0.1248	9.7888	-1.4114	0.3358	-0.7471	-0.3134	0.0000	0.0000
243232.4219	-0.1917	-7.6385	7.3266	-1.7812	9.1086	3.9502	-0.2990	-0.5340	-0.7440	243232.4219	-1.6771	5.9369	-4.7227	0.5846	9.7187	0.1668	-0.2750	-0.6621	-0.4409	243232.4219	-2.3931	2.6478	-1.5917	-0.7226	4.1757	-8.7788	-0.3662	-0.0771	0.6256	243232.4219	-0.8419	10.2169	0.4731	0.0371	9.3735	2.8601	0.1980	-0.7078	0.1593	243232.4219	3509012339.8502	3509012096.6177	1.0954	5.4300	-1.6918	1.8888	9.8231	0.5376	0.2388	-0.6447	0.3495	243232.4219	-2.6906	-0.3311	0.9556	0.0804	5.9379	-8.0967	-0.8280	1.7353	0.5446	243232.4219	-0.5034	-9.8381	-1.6619	-0.0437	9.7903	-1.2559	0.3154	-0.7644	-0.3157	0.0000	0.0000
243242.1875	-6.8747	4.1498	7.7026	-1.6240	8.9558	3.7246	-0.2971	-0.5301	-0.7657	243242.1875	-1.6771	5.9369	-4.7227	0.5846	9.8748	0.1637	-0.2596	-0.6836	-0.4237	243242.1875	-2.3931	2.6478	-1.5917	-0.7226	4.2557	-8.6260	-0.3742	-0.0625	0.6035	243242.1875	3.5359	-3.7678	-1.0434	-0.0388	9.5263	3.0137	0.1902	-0.7449	0.1616	243242.1875	3509012339.8599	3509012096.6177	1.0954	5.4300	-1.6918	1.5758	9.8255	0.7746	0.2388	-0.6085	0.3663	243242.1875	-2.6906	-0.3311	0.9556	-0.1544	5.7873	-7.9298	-0.8380	1.7122	0.5845	243242.1875	-0.5034	-9.8381	-1.6619	-0.1248	9.7123	-1.4106	0.3321	-0.7816	-0.3157	0.0000	0.0000
243251.9531	-6.8747	4.1498	7.7026	-1.3864	8.8031	3.5733	-0.3010	-0.5282	-0.7397	243251.9531	-1.6771	5.9369	-4.7227	0.5846	9.8780	0.4781	-0.2596	-0.6836	-0.4237	243251.9531	-2.3931	2.6478	-1.5917	-0.5669	4.2556	-8.6275	-0.3742	-0.0625	0.6035	243251.9531	3.5359	-3.7678	-1.0434	-0.1943	9.5263	2.9380	0.1922	-0.6770	0.1382	243251.9531	3509012339.8697	3509012096.6177	0.7979	0.7715	-2.4888	1.3411	9.7477	0.7754	0.2388	-0.6085	0.3663	243251.9531	-2.6906	-0.3311	0.9556	0.0032	5.8642	-7.9345	-0.8380	1.7122	0.5845	243251.9531	-0.5034	-9.8381	-1.6619	-0.2036	9.6366	-1.3321	0.2950	-0.7471	-0.3134	0.0000	0.0000
243261.7187	-6.8747	4.1498	7.7026	-1.3082	8.8031	3.4221	-0.2743	-0.5515	-0.7766	243261.7187	-1.6771	5.9369	-4.7227	0.7438	9.7991	0.4011	-0.2500	-0.6504	-0.4495	243261.7187	-1.6965	2.7510	-1.7345	-0.4891	4.1772	-8.6275	-0.3843	-0.0750	0.6256	243261.7187	3.5359	-3.7678	-1.0434	-0.4265	9.4499	2.9411	0.1882	-0.7284	0.1663	243261.7187	3509012339.8795	3509012096.6177	0.7979	0.7715	-2.4888	1.3411	9.7477	0.7754	0.2306	-0.6723	0.3979	243261.7187	-2.8032	-0.2560	0.6276	0.2404	5.7887	-7.8581	-0.7920	1.7458	0.5423	243261.7187	2.5338	-9.0359	-3.6928	-0.1240	9.7131	-1.3329	0.3321	-0.7586	-0.3134	0.0000	0.0000
243271.4844	-6.8747	4.1498	7.7026	-1.3834	8.9558	3.8726	-0.2838	-0.5573	-0.7527	243271.4844	-2.4091	1.3901	-4.7160	0.8234	9.7203	0.3240	-0.2731	-0.6582	-0.4430	243271.4844	-1.6965	2.7510	-1.7345	-0.7226	4.2533	-8.8564	-0.3823	-0.0979	0.6256	243271.4844	1.4695	-12.0687	-0.8040	-0.6571	9.4499	3.0978	0.1882	-0.7284	0.1663	243271.4844	3509012339.8892	3509012096.6177	0.7979	0.7715	-2.4888	1.1846	9.6708	0.8551	0.2327	-0.6298	0.3747	243271.4844	-2.8032	-0.2560	0.6276	0.0032	5.8642	-7.9345	-0.8280	1.7521	0.5516	243271.4844	2.5338	-9.0359	-3.6928	-0.2832	9.7895	-1.3336	0.3061	-0.7797	-0.3157	0.0000	0.0000
243281.2500	-0.4240	-3.3097	12.8031	-1.7819	9.0322	3.8758	-0.2819	-0.5631	-0.7809	243281.2500	-2.4091	1.3901	-4.7160	0.9826	9.7999	0.4797	-0.2731	-0.6582	-0.4430	243281.2500	-1.6965	2.7510	-1.7345	-0.8783	4.2557	-8.6244	-0.3823	-0.0979	0.6256	243281.2500	1.4695	-12.0687	-0.8040	-0.9681	9.4499	2.9465	0.2098	-0.7016	0.1663	243281.2500	3509012339.8990	3509012096.6177	0.6768	-1.3823	-3.9348	1.2628	9.6700	0.7761	0.2265	-0.6064	0.3600	243281.2500	-2.8032	-0.2560	0.6276	-0.1544	5.5563	-7.9252	-0.8260	1.7185	0.5869	243281.2500	2.5338	-9.0359	-3.6928	-0.3620	9.6374	-1.2543	0.3284	-0.7682	-0.3041	0.0000	0.0000
243291.0156	-0.4240	-3.3097	12.8031	-2.0999	8.7267	3.9572	-0.2876	-0.5553	-0.7440	243291.0156	-2.4091	1.3901	-4.7160	0.9030	9.8756	0.2423	-0.2558	-0.6621	-0.4280	243291.0156	-0.9557	3.5502	-2.9502	-0.5669	4.1772	-8.6267	-0.3722	-0.0813	0.6079	243291.0156	1.4695	-12.0687	-0.8040	-1.1221	9.2971	3.0268	0.2059	-0.6770	0.1382	243291.0156	3509012339.9088	3509012096.6177	0.6768	-1.3823	-3.9348	1.0281	9.7477	0.7754	0.2265	-0.6064	0.3600	243291.0156	-0.6708	-0.0046	0.0352	-0.1544	5.5563	-7.9252	-0.8260	1.7185	0.5869	243291.0156	2.5338	-9.0359	-3.6928	-0.3628	9.7131	-1.3329	0.2968	-0.7567	-0.3134	0.0000	0.0000
243300.7812	-0.4240	-3.3097	12.8031	-2.1781	8.9558	4.1061	-0.2914	-0.5359	-0.7657	243300.7812	-4.7797	4.0699	-1.1901	1.0622	9.7999	0.4797	-0.2500	-0.6582	-0.4516	243300.7812	-0.9557	3.5502	-2.9502	-0.7226	4.1757	-8.7788	-0.3903	-0.0917	0.6145	243300.7812	3.2910	0.1828	0.1401	-1.0416	9.4499	3.3333	0.1863	-0.7222	0.1569	243300.7812	3509012339.9185	3509012096.6177	0.6768	-1.3823	-3.9348	1.1846	9.7501	1.0124	0.2224	-0.6277	0.4021	243300.7812	-0.6708	-0.0046	0.0352	-0.1552	5.6317	-8.0063	-0.8020	1.7374	0.5446	243300.7812	0.0316	-5.7363	-2.9259	-0.4440	9.7115	-1.4884	0.3191	-0.7739	-0.3065	0.0000	0.0000
243310.5469	-4.0528	2.6947	13.2016	-2.1811	8.8795	3.8061	-0.2990	-0.5398	-0.7354	243310.5469	-4.7797	4.0699	-1.1901	1.2214	9.6423	0.3256	-0.2788	-0.6816	-0.4344	243310.5469	-0.9557	3.5502	-2.9502	-0.7226	4.2526	-8.9333	-0.3763	-0.0917	0.6145	243310.5469	3.2910	0.1828	0.1401	-0.8869	9.4499	3.3317	0.1863	-0.7222	0.1569	243310.5469	3509012339.9283	3509012096.6177	0.6768	-1.3823	-3.9348	1.1064	9.5946	1.0139	0.2245	-0.6255	0.3832	243310.5469	-0.6708	-0.0046	0.0352	0.0812	5.9395	-8.0172	-0.8260	1.7143	0.5563	243310.5469	0.0316	-5.7363	-2.9259	-0.6032	9.7880	-1.4891	0.2968	-0.7720	-0.3134	0.0000	0.0000
243320.3125	-4.0528	2.6947	13.2016	-2.2608	9.0322	3.8054	-0.2857	-0.5398	-0.7636	243320.3125	-4.7797	4.0699	-1.1901	1.3806	9.6423	0.3256	-0.2788	-0.6816	-0.4344	243320.3125	-0.9557	3.5502	-2.9502	-0.5669	4.1780	-8.5499	-0.3763	-0.0917	0.6145	243320.3125	3.2910	0.1828	0.1401	-0.6547	9.4499	3.3294	0.2020	-0.7325	0.1639	243320.3125	3509012339.9381	3509012096.6177	1.5230	-1.7576	-6.1594	1.4193	9.5922	0.7769	0.2245	-0.6255	0.3832	243320.3125	-1.2294	-0.7666	0.3601	0.0015	6.0919	-8.0982	-0.8300	1.7416	0.5892	243320.3125	0.0316	-5.7363	-2.9259	-0.3644	9.8644	-1.4899	0.3135	-0.8008	-0.3111	0.0000	0.0000
243330.0781	-4.0528	2.6947	13.2016	-1.7819	9.0322	3.8758	-0.2914	-0.5379	-0.7397	243330.0781	-4.6959	4.9055	4.9166	1.6990	9.7983	0.3225	-0.2596	-0.6465	-0.4301	243330.0781	-1.6133	4.6417	-2.7503	-0.6448	4.0973	-8.7788	-0.3662	-0.0708	0.5969	243330.0781	3.2910	0.1828	0.1401	-0.5015	9.3735	3.1742	0.2059	-0.6749	0.1311	243330.0781	3509012339.9478	3509012096.6177	1.5230	-1.7576	-6.1594	1.4976	9.5946	1.0139	0.2224	-0.6255	0.3600	243330.0781	-1.2294	-0.7666	0.3601	0.0032	5.8642	-7.9345	-0.8300	1.7416	0.5892	243330.0781	-0.4776	-1.9222	-3.6481	-0.3628	9.7131	-1.3329	0.2857	-0.7567	-0.3249	0.0000	0.0000
243339.8437	-4.9697	21.2832	11.2069	-1.4631	9.1086	3.8718	-0.2610	-0.5631	-0.7809	243339.8437	-4.6959	4.9055	4.9166	1.6990	9.6431	0.4042	-0.2596	-0.6719	-0.4430	243339.8437	-1.6133	4.6417	-2.7503	-0.4112	4.2549	-8.7059	-0.3803	-0.0875	0.6123	243339.8437	-4.6074	2.5835	0.3633	-0.6555	9.5263	3.2515	0.2059	-0.6749	0.1311	243339.8437	3509012339.9576	3509012096.6177	1.5230	-1.7576	-6.1594	1.2628	9.7509	1.0914	0.2184	-0.6745	0.4000	243339.8437	-1.2294	-0.7666	0.3601	0.0820	5.9411	-7.9376	-0.8080	1.7332	0.5469	243339.8437	-0.4776	-1.9222	-3.6481	-0.2832	9.6366	-1.3321	0.3210	-0.7567	-0.3134	0.0000	0.0000
243349.6094	-4.9697	21.2832	11.2069	-1.3037	8.9558	3.8718	-0.2724	-0.5612	-0.7484	243349.6094	-4.6959	4.9055	4.9166	1.5398	9.7211	0.4026	-0.2692	-0.6816	-0.4344	243349.6094	-1.6133	4.6417	-2.7503	-0.5669	3.9404	-8.7780	-0.3803	-0.0875	0.6123	243349.6094	-4.6074	2.5835	0.3633	-0.8892	9.2208	3.1025	0.1902	-0.7058	0.1639	243349.6094	3509012339.9673	3509012096.6177	2.2481	-1.8259	-8.3197	1.1846	9.5914	0.6979	0.2224	-0.6723	0.3789	243349.6094	-1.2294	-0.7666	0.3601	0.1607	6.0951	-7.9423	-0.8180	1.7521	0.5610	243349.6094	-0.4776	-1.9222	-3.6481	-0.2036	9.6366	-1.3321	0.3080	-0.7395	-0.3088	0.0000	0.0000
243359.3750	-4.9697	21.2832	11.2069	-1.3834	8.9558	3.8726	-0.2610	-0.5709	-0.7722	243359.3750	-4.6959	4.9055	4.9166	1.3806	9.8756	0.2423	-0.2692	-0.6816	-0.4344	243359.3750	0.2596	3.1670	-2.0387	-0.4891	4.2541	-8.7819	-0.3803	-0.0667	0.6233	243359.3750	-4.6074	2.5835	0.3633	-0.8110	9.2971	3.1781	0.1941	-0.7263	0.1686	243359.3750	3509012339.9771	3509012096.6177	2.2481	-1.8259	-8.3197	1.4976	9.6708	0.8551	0.2224	-0.6723	0.3789	243359.3750	-2.0811	-3.8056	1.0321	0.0040	5.7888	-7.8534	-0.8180	1.7521	0.5610	243359.3750	-0.3207	0.9535	-4.6849	-0.2028	9.5609	-1.2536	0.3191	-0.7625	-0.3111	0.0000	0.0000
243369.1406	-6.0388	13.8223	6.1537	-1.3060	9.1086	3.6447	-0.2629	-0.5650	-0.7462	243369.1406	-6.8113	2.3721	10.0891	1.4602	9.7983	0.3225	-0.2500	-0.6426	-0.4215	243369.1406	0.2596	3.1670	-2.0387	-0.5669	4.1764	-8.7036	-0.3702	-0.0479	0.6013	243369.1406	-2.4950	3.4111	1.4351	-0.8118	9.2971	3.1009	0.2039	-0.6996	0.1358	243369.1406	3509012339.9869	3509012096.6177	2.2481	-1.8259	-8.3197	1.1064	9.6716	0.9341	0.2245	-0.6362	0.3558	243369.1406	-2.0811	-3.8056	1.0321	-0.3128	5.7857	-8.0062	-0.8300	1.7290	0.5798	243369.1406	-0.3207	0.9535	-4.6849	0.0352	9.7131	-1.3329	0.2931	-0.7452	-0.3157	0.0000	0.0000
243378.9062	-6.0388	13.8223	6.1537	-1.2263	9.0322	3.6446	-0.2629	-0.5728	-0.7701	243378.9062	-6.8113	2.3721	10.0891	1.3010	9.7195	0.2454	-0.2615	-0.6641	-0.4495	243378.9062	0.2596	3.1670	-2.0387	-0.4891	4.1757	-8.7812	-0.3783	-0.0604	0.6167	243378.9062	-2.4950	3.4111	1.4351	-0.8762	10.7482	4.3995	0.2039	-0.6996	0.1358	243378.9062	3509012339.9966	3509012096.6177	2.0790	-3.3679	-9.9893	1.2628	9.7477	0.7754	0.2020	-0.6596	0.3853	243378.9062	-2.0811	-3.8056	1.0321	-0.1536	5.7888	-7.8503	-0.8140	1.7479	0.5352	243378.9062	-0.3207	0.9535	-4.6849	-0.0444	9.6366	-1.3321	0.3284	-0.7510	-0.3134	0.0000	0.0000
243388.6719	-6.0388	13.8223	6.1537	-1.0662	8.9558	3.7190	-0.2743	-0.5417	-0.7375	243388.6719	-6.8113	2.3721	10.0891	1.3010	9.6399	0.0898	-0.2538	-0.7051	-0.4301	243388.6719	0.5257	2.8823	-1.7402	-0.6448	4.2549	-8.7036	-0.3783	-0.0604	0.6167	243388.6719	-2.4950	3.4111	1.4351	-0.1138	9.3735	3.2476	0.1941	-0.6852	0.1663	243388.6719	3509012340.0064	3509012096.6177	2.0790	-3.3679	-9.9893	1.5758	9.6708	0.8551	0.2020	-0.6596	0.3853	243388.6719	-0.1695	-1.5641	0.2161	-0.0764	5.6317	-8.0079	-0.8340	1.7521	0.5610	243388.6719	-2.2211	2.4974	-6.1091	0.0360	9.5609	-1.2536	0.3024	-0.7395	-0.3157	0.0000	0.0000
243398.4375	-6.0388	13.8223	6.1537	-1.1459	8.8795	3.7205	-0.2610	-0.5476	-0.7679	243398.4375	-5.4845	2.5655	17.0129	1.6194	9.6391	0.0111	-0.2538	-0.7051	-0.4301	243398.4375	0.5257	2.8823	-1.7402	-0.4891	4.0965	-8.8572	-0.3803	-0.0813	0.6233	243398.4375	-9.9189	7.6112	3.7843	-0.1958	9.2971	2.7859	0.1922	-0.6914	0.1827	243398.4375	3509012340.0162	3509012096.6177	2.0790	-3.3679	-9.9893	1.6540	9.5938	0.9349	0.2224	-0.6723	0.3895	243398.4375	-0.1695	-1.5641	0.2161	-0.1528	5.7134	-7.7692	-0.8340	1.7521	0.5610	243398.4375	-2.2211	2.4974	-6.1091	0.0352	9.7131	-1.3329	0.3228	-0.7529	-0.3203	0.0000	0.0000
243408.2031	-0.2423	18.5817	-2.9202	-1.1451	9.0322	3.7942	-0.2819	-0.5650	-0.7332	243408.2031	-5.4845	2.5655	17.0129	1.9378	9.6407	0.1684	-0.2500	-0.6504	-0.4237	243408.2031	0.5257	2.8823	-1.7402	-0.5669	4.1787	-8.4731	-0.3783	-0.0500	0.6167	243408.2031	-9.9189	7.6112	3.7843	-0.0411	9.1444	2.7859	0.1961	-0.7016	0.1546	243408.2031	3509012340.0259	3509012096.6177	1.7995	-3.4874	-10.5112	1.7323	9.5176	1.0937	0.2286	-0.6319	0.3558	243408.2031	-0.1695	-1.5641	0.2161	-0.0748	5.7888	-7.8518	-0.8180	1.7332	0.5798	243408.2031	-2.2211	2.4974	-6.1091	0.1163	9.7146	-1.1773	0.2968	-0.7567	-0.3180	0.0000	0.0000
243417.9687	-0.2423	18.5817	-2.9202	-0.9857	9.1086	3.7919	-0.2800	-0.5728	-0.7614	243417.9687	-5.4845	2.5655	17.0129	2.0174	9.5627	0.1699	-0.2500	-0.6953	-0.4495	243417.9687	0.5257	2.8823	-1.7402	-0.5669	4.1749	-8.8572	-0.3783	-0.0500	0.6167	243417.9687	-9.9189	7.6112	3.7843	-0.1192	9.0680	2.7103	0.1961	-0.7016	0.1546	243417.9687	3509012340.0357	3509012096.6177	1.7995	-3.4874	-10.5112	1.4976	9.5977	1.3299	0.2245	-0.6383	0.3768	243417.9687	-0.0590	1.4513	-1.2148	-0.1536	5.7119	-7.8487	-0.7940	1.7563	0.5469	243417.9687	-2.2211	2.4974	-6.1091	0.0359	9.7903	-1.2559	0.3191	-0.7739	-0.3203	0.0000	0.0000
243427.7344	-0.2423	18.5817	-2.9202	-0.7482	9.0322	3.6398	-0.2552	-0.5689	-0.7462	243427.7344	-0.9506	-8.5948	25.4032	2.3358	9.5635	0.2485	-0.2500	-0.6875	-0.4495	243427.7344	1.9511	4.6980	-1.9795	-0.3333	4.3317	-8.8611	-0.3903	-0.0813	0.6013	243427.7344	7.6535	0.4790	-0.8970	-0.3513	8.9916	2.7134	0.1980	-0.6955	0.1616	243427.7344	3509012340.0455	3509012096.6177	1.7995	-3.4874	-10.5112	1.4976	9.5946	1.0139	0.2245	-0.6383	0.3768	243427.7344	-0.0590	1.4513	-1.2148	-0.0781	6.0134	-8.1747	-0.8360	1.7185	0.5704	243427.7344	-7.8423	4.3893	-8.4452	-0.0429	9.7146	-1.1773	0.2968	-0.7854	-0.3088	0.0000	0.0000
243437.5000	1.9753	7.2064	-7.2712	-0.8279	9.4141	3.6368	-0.2552	-0.5689	-0.7744	243437.5000	-0.9506	-8.5948	25.4032	2.7338	9.4823	-0.0643	-0.2442	-0.6875	-0.4280	243437.5000	1.9511	4.6980	-1.9795	-0.8005	4.0973	-8.7773	-0.3903	-0.1062	0.6322	243437.5000	7.6535	0.4790	-0.8970	-0.3514	9.2208	2.7111	0.1980	-0.7263	0.1686	243437.5000	3509012340.0552	3509012096.6177	1.2885	7.2162	-9.8068	1.5758	9.5962	1.1719	0.2204	-0.6638	0.3853	243437.5000	-0.0590	1.4513	-1.2148	-0.1552	5.9396	-8.0125	-0.8360	1.7185	0.5704	243437.5000	-7.8423	4.3893	-8.4452	0.0344	9.8652	-1.4121	0.3024	-0.8123	-0.3203	0.0000	0.0000
243447.2656	1.9753	7.2064	-7.2712	-0.8286	9.2613	3.5631	-0.2476	-0.5631	-0.7484	243447.2656	-0.9506	-8.5948	25.4032	2.8930	9.7117	-0.5407	-0.2385	-0.6523	-0.4151	243447.2656	1.9511	4.6980	-1.9795	-0.4891	4.1764	-8.7043	-0.3742	-0.0792	0.6189	243447.2656	7.6535	0.4790	-0.8970	-0.2709	9.4499	3.0168	0.1980	-0.7263	0.1686	243447.2656	3509012340.0650	3509012096.6177	1.2885	7.2162	-9.8068	1.6540	9.5160	0.9357	0.2184	-0.6213	0.3579	243447.2656	-3.9089	1.1339	-0.6905	-0.0001	6.3197	-8.2620	-0.8180	1.7479	0.5869	243447.2656	-7.8423	4.3893	-8.4452	-0.0452	9.8652	-1.4121	0.2820	-0.7854	-0.3065	0.0000	0.0000
243457.0312	1.9753	7.2064	-7.2712	-0.9091	9.2613	3.4887	-0.2571	-0.5767	-0.7679	243457.0312	0.2537	-18.4088	41.1704	2.8930	9.7921	-0.3064	-0.2423	-0.7109	-0.4430	243457.0312	6.2267	6.3397	-4.1497	-0.7226	3.9420	-8.6228	-0.3742	-0.0792	0.6189	243457.0312	7.6535	0.4790	-0.8970	-0.3468	9.4499	3.1719	0.1961	-0.6770	0.1452	243457.0312	3509012340.0748	3509012096.6177	1.2885	7.2162	-9.8068	1.7323	9.5145	0.7777	0.2184	-0.6213	0.3579	243457.0312	-3.9089	1.1339	-0.6905	0.0039	5.9427	-7.8565	-0.8080	1.7395	0.5376	243457.0312	-11.6431	4.4196	-12.8090	-0.2044	9.9417	-1.4129	0.3135	-0.7567	-0.3041	0.0000	0.0000
243466.7969	0.8119	4.9474	-11.1689	-0.6700	9.1850	3.4871	-0.2705	-0.5748	-0.7505	243466.7969	0.2537	-18.4088	41.1704	3.4502	9.7913	-0.3850	-0.2423	-0.7109	-0.4430	243466.7969	6.2267	6.3397	-4.1497	-0.8005	3.8635	-8.6213	-0.3903	-0.0750	0.5947	243466.7969	6.0156	-3.8801	-2.4599	-0.2686	9.6790	3.2461	0.1804	-0.7222	0.1569	243466.7969	3509012340.0845	3509012096.6177	1.2885	7.2162	-9.8068	1.4193	9.4359	0.6995	0.2163	-0.6170	0.3684	243466.7969	-3.9089	1.1339	-0.6905	-0.2357	6.2444	-8.1761	-0.8200	1.7563	0.5681	243466.7969	-11.6431	4.4196	-12.8090	-0.2052	9.8644	-1.4899	0.2968	-0.7529	-0.3018	0.0000	0.0000
243476.5625	0.8119	4.9474	-11.1689	-0.6700	9.4141	3.4848	-0.2686	-0.5942	-0.7787	243476.5625	0.2537	-18.4088	41.1704	4.0075	9.9473	-0.3881	-0.2327	-0.6680	-0.4258	243476.5625	6.2267	6.3397	-4.1497	-0.4891	3.7882	-8.3163	-0.3944	-0.1146	0.6167	243476.5625	6.0156	-3.8801	-2.4599	-0.1208	9.4499	2.5521	0.2020	-0.7099	0.1663	243476.5625	3509012340.0943	3509012096.6177	2.0498	13.4748	-11.3831	1.2628	9.5152	0.8567	0.2020	-0.6851	0.3916	243476.5625	-3.9089	1.1339	-0.6905	0.0032	5.8642	-7.9345	-0.8200	1.7563	0.5681	243476.5625	-11.6431	4.4196	-12.8090	-0.2887	9.7841	-1.8779	0.3098	-0.7874	-0.3088	0.0000	0.0000
243486.3281	0.8119	4.9474	-11.1689	-0.4294	9.2613	3.6344	-0.2533	-0.5806	-0.7484	243486.3281	0.2537	-18.4088	41.1704	4.4851	10.2603	-0.3158	-0.2269	-0.6621	-0.4172	243486.3281	17.8103	10.2512	-6.1270	-0.0219	3.5490	-8.7027	-0.3944	-0.1146	0.6167	243486.3281	6.0156	-3.8801	-2.4599	-0.8907	8.9153	2.9511	0.2020	-0.7099	0.1663	243486.3281	3509012340.1041	3509012096.6177	2.0498	13.4748	-11.3831	1.1064	9.5121	0.5407	0.2041	-0.6234	0.3642	243486.3281	-6.8203	2.0488	0.0339	-0.2340	5.7087	-8.0063	-0.8220	1.7416	0.5775	243486.3281	-26.5172	7.2802	-12.5323	-0.2887	9.5547	-1.8756	0.2913	-0.7854	-0.2949	0.0000	0.0000
243496.0937	-2.3504	8.3389	-18.4852	-0.1888	9.3377	3.7816	-0.2667	-0.5845	-0.7657	243496.0937	-0.5300	-13.5771	62.4896	4.7239	10.4218	0.2314	-0.2115	-0.7324	-0.4473	243496.0937	17.8103	10.2512	-6.1270	-0.3333	3.8604	-8.9332	-0.3722	-0.0813	0.6035	243496.0937	12.2455	-9.2751	-1.5295	-0.4210	9.3735	3.4822	0.1882	-0.7263	0.1288	243496.0937	3509012340.1138	3509012096.6177	2.0498	13.4748	-11.3831	1.1064	9.4343	0.5415	0.2041	-0.6234	0.3642	243496.0937	-6.8203	2.0488	0.0339	-0.3112	5.7119	-7.8456	-0.8000	1.7521	0.5305	243496.0937	-26.5172	7.2802	-12.5323	-0.4486	9.3246	-1.9511	0.2839	-0.7950	-0.2926	0.0000	0.0000
243505.8594	-2.3504	8.3389	-18.4852	0.2096	9.2613	3.7784	-0.2590	-0.5922	-0.7722	243505.8594	-0.5300	-13.5771	62.4896	4.6443	10.7387	0.6968	-0.2115	-0.7324	-0.4473	243505.8594	17.8103	10.2512	-6.1270	-0.5669	3.7044	-8.8525	-0.3722	-0.0854	0.5903	243505.8594	12.2455	-9.2751	-1.5295	-0.5031	9.5263	3.0183	0.1863	-0.7243	0.1499	243505.8594	3509012340.1236	3509012096.6177	1.8024	23.4269	-11.7431	1.4193	9.5113	0.4617	0.1959	-0.6511	0.3684	243505.8594	-6.8203	2.0488	0.0339	-0.0756	5.7872	-7.9314	-0.8380	1.7584	0.5775	243505.8594	-26.5172	7.2802	-12.5323	-0.6078	9.3246	-1.9511	0.2672	-0.7739	-0.2926	0.0000	0.0000
243515.6250	-2.3504	8.3389	-18.4852	0.6870	9.2613	3.6984	-0.2571	-0.5728	-0.7722	243515.6250	-0.5300	-13.5771	62.4896	3.3706	11.2896	1.1575	-0.2135	-0.6816	-0.4172	243515.6250	17.8103	10.2512	-6.1270	-0.4891	4.1703	-9.3189	-0.3924	-0.0917	0.6145	243515.6250	12.2455	-9.2751	-1.5295	-0.4288	9.6790	2.7073	0.1941	-0.7305	0.1616	243515.6250	3509012340.1334	3509012096.6177	1.8024	23.4269	-11.7431	1.9670	9.3526	0.1472	0.1939	-0.6426	0.3958	243515.6250	-6.0707	5.3449	-1.4791	0.0820	5.6332	-7.9315	-0.8380	1.7584	0.5775	243515.6250	-8.2621	14.6360	-9.3528	-0.6063	9.2497	-1.7948	0.3024	-0.8027	-0.2972	0.0000	0.0000
243525.3906	-2.3504	8.3389	-18.4852	1.0863	9.3377	3.7689	-0.2533	-0.5631	-0.7527	243525.3906	1.7208	-13.9568	91.2615	2.6542	12.1527	1.6120	-0.1981	-0.6895	-0.4151	243525.3906	34.7815	11.7618	-6.5553	0.0560	3.5413	-9.4717	-0.3924	-0.0917	0.6145	243525.3906	8.2045	0.2593	-4.1063	-0.1185	9.7554	2.7806	0.1941	-0.7305	0.1616	243525.3906	3509012340.1431	3509012096.6177	1.8024	23.4269	-11.7431	2.5147	9.1201	0.2286	0.1939	-0.6426	0.3958	243525.3906	-6.0707	5.3449	-1.4791	0.0048	5.6364	-7.7708	-0.8160	1.7353	0.5775	243525.3906	-8.2621	14.6360	-9.3528	-0.2878	9.0968	-1.7933	0.2876	-0.7835	-0.2765	0.0000	0.0000
243535.1562	-8.4596	16.1018	-38.2412	1.4050	9.4905	3.7641	-0.2590	-0.5689	-0.7614	243535.1562	1.7208	-13.9568	91.2615	1.4602	13.3232	1.5886	-0.1692	-0.7324	-0.4409	243535.1562	34.7815	11.7618	-6.5553	-2.2798	3.0672	-9.8278	-0.3803	-0.0708	0.6057	243535.1562	8.2045	0.2593	-4.1063	0.1152	9.5263	2.9349	0.2059	-0.6811	0.1405	243535.1562	3509012340.1529	3509012096.6177	4.0714	25.7426	-8.8251	2.7494	8.8885	0.3889	0.1918	-0.6404	0.3726	243535.1562	-6.0707	5.3449	-1.4791	0.5564	5.6362	-7.7818	-0.8040	1.7647	0.5399	243535.1562	-8.2621	14.6360	-9.3528	-0.0514	9.1709	-2.0273	0.2746	-0.7854	-0.2834	0.0000	0.0000
243544.9219	-8.4596	16.1018	-38.2412	1.5659	9.4141	3.9137	-0.2533	-0.5670	-0.7701	243544.9219	1.7208	-13.9568	91.2615	0.5050	14.8823	1.4001	-0.1692	-0.7324	-0.4409	243544.9219	34.7815	11.7618	-6.5553	3.0146	1.4920	-10.4796	-0.3944	-0.1187	0.5859	243544.9219	8.2045	0.2593	-4.1063	0.1113	9.5263	2.5490	0.1961	-0.6996	0.1499	243544.9219	3509012340.1627	3509012096.6177	4.0714	25.7426	-8.8251	2.9841	8.8853	0.0729	0.1837	-0.6298	0.3663	243544.9219	-6.9120	5.9815	-1.3250	0.3200	5.7133	-7.7786	-0.8320	1.7269	0.5704	243544.9219	-8.2621	14.6360	-9.3528	0.1071	8.7878	-2.1012	0.2913	-0.7586	-0.2788	0.0000	0.0000
243554.6875	-8.4596	16.1018	-38.2412	1.9674	9.4141	4.2105	-0.2667	-0.6039	-0.7744	243554.6875	7.2305	25.3801	109.3392	1.8582	16.5289	2.1535	-0.1673	-0.7148	-0.4301	243554.6875	104.7934	-2.6681	-7.9470	-2.1241	3.5169	-11.9083	-0.3944	-0.1187	0.5859	243554.6875	2.6634	6.1009	-11.1777	0.0294	9.1444	2.0904	0.1961	-0.6996	0.1499	243554.6875	3509012340.1724	3509012096.6177	4.0714	25.7426	-8.8251	3.4535	9.0463	0.6244	0.1735	-0.6447	0.4000	243554.6875	-6.9120	5.9815	-1.3250	0.5556	5.6346	-7.8614	-0.8320	1.7269	0.5704	243554.6875	-5.9065	21.0837	-3.4916	0.1071	8.7878	-2.1012	0.2839	-0.7663	-0.2857	0.0000	0.0000
243564.4531	-15.9457	23.5102	-72.7513	2.6087	9.5668	4.5786	-0.2590	-0.5476	-0.7462	243564.4531	7.2305	25.3801	109.3392	3.5299	17.5338	1.1899	-0.1538	-0.7441	-0.4215	243564.4531	104.7934	-2.6681	-7.9470	1.6910	3.6242	-9.0279	-0.4044	-0.1125	0.5991	243564.4531	2.6634	6.1009	-11.1777	-0.1293	9.2208	1.7052	0.1843	-0.7325	0.1663	243564.4531	3509012340.1822	3509012096.6177	6.2796	17.6814	-4.3721	3.2971	9.5224	1.5677	0.1735	-0.6447	0.4000	243564.4531	-6.9120	5.9815	-1.3250	0.5548	5.5560	-7.9394	-0.8260	1.7542	0.5728	243564.4531	-5.9065	21.0837	-3.4916	-0.1325	8.6341	-2.1775	0.2801	-0.7835	-0.2719	0.0000	0.0000
243574.2187	-15.9457	23.5102	-72.7513	3.3304	9.4905	5.0234	-0.2762	-0.5981	-0.7614	243574.2187	7.2305	25.3801	109.3392	3.2114	16.6739	1.0498	-0.1192	-0.7676	-0.4409	243574.2187	104.7934	-2.6681	-7.9470	-1.9684	3.4493	-10.8335	-0.3984	-0.1354	0.5925	243574.2187	2.6634	6.1009	-11.1777	0.1811	8.9916	1.7816	0.2000	-0.7160	0.1288	243574.2187	3509012340.1920	3509012096.6177	6.2796	17.6814	-4.3721	2.7494	9.7580	1.8024	0.1857	-0.6553	0.3895	243574.2187	-6.9120	5.9815	-1.3250	0.0024	5.7856	-8.0125	-0.8140	1.7521	0.5423	243574.2187	-5.9065	21.0837	-3.4916	-0.2878	8.6380	-1.7887	0.2894	-0.7720	-0.2811	0.0000	0.0000
243583.9844	-15.9457	23.5102	-72.7513	3.8921	9.3377	5.3953	-0.2724	-0.5981	-0.7657	243583.9844	-31.2119	22.8121	118.8480	3.2910	15.2787	2.0212	-0.1192	-0.7676	-0.4409	243583.9844	183.5029	35.0296	-11.9454	-0.0998	3.5175	-11.8517	-0.4004	-0.1333	0.5573	243583.9844	2.6634	6.1009	-11.1777	0.0347	9.3735	2.6285	0.1804	-0.6914	0.1382	243583.9844	3509012340.2017	3509012096.6177	6.2796	17.6814	-4.3721	2.3582	10.0682	1.7203	0.1816	-0.6362	0.3621	243583.9844	-6.4035	1.9093	-0.4280	-0.1560	5.8611	-8.0905	-0.8300	1.7668	0.5751	243583.9844	-5.5830	23.0816	4.5270	-0.1231	8.5670	-1.2436	0.2968	-0.7701	-0.2696	0.0000	0.0000
243593.7500	-41.9661	10.5455	-114.2082	4.2131	9.1850	5.6193	-0.2895	-0.5767	-0.7614	243593.7500	-31.2119	22.8121	118.8480	2.5746	12.9922	-0.2918	-0.1000	-0.7246	-0.4194	243593.7500	183.5029	35.0296	-11.9454	-0.0998	3.6021	-11.2379	-0.4004	-0.1333	0.5573	243593.7500	8.9545	-15.9592	-12.8592	-0.1131	9.6790	3.3217	0.1804	-0.6914	0.1382	243593.7500	3509012340.2115	3509012096.6177	7.6105	-3.3162	-3.8469	2.1235	10.0706	1.9573	0.1816	-0.6362	0.3621	243593.7500	-6.4035	1.9093	-0.4280	-0.0772	5.5531	-8.0859	-0.8300	1.7668	0.5751	243593.7500	-5.5830	23.0816	4.5270	0.0423	8.7261	-0.6231	0.2950	-0.7605	-0.2673	0.0000	0.0000
243603.5156	-41.9661	10.5455	-114.2082	4.7724	9.7959	5.7580	-0.2895	-0.5748	-0.7484	243603.5156	-31.2119	22.8121	118.8480	1.4602	12.2750	-1.7713	-0.0769	-0.7559	-0.4043	243603.5156	183.5029	35.0296	-11.9454	-2.5912	9.9285	-13.8885	-0.4185	-0.1896	0.5529	243603.5156	8.9545	-15.9592	-12.8592	-0.0296	9.9845	3.9354	0.1784	-0.7099	0.1593	243603.5156	3509012340.2213	3509012096.6177	7.6105	-3.3162	-3.8469	2.0452	9.8452	2.7497	0.1714	-0.6766	0.3937	243603.5156	-6.4035	1.9093	-0.4280	-0.0772	5.7840	-8.0905	-0.8200	1.7521	0.5610	243603.5156	-5.5830	23.0816	4.5270	0.5190	9.3370	-0.7070	0.3135	-0.7663	-0.2742	0.0000	0.0000
243613.2812	-41.9661	10.5455	-114.2082	3.5717	10.6360	5.2351	-0.3276	-0.5845	-0.7354	243613.2812	-31.2119	22.8121	118.8480	0.1070	11.3567	0.0554	-0.0769	-0.7559	-0.4043	243613.2812	183.5029	35.0296	-11.9454	-3.6813	11.8924	-21.4266	-0.4105	-0.2479	0.5286	243613.2812	8.9545	-15.9592	-12.8592	-0.0303	9.6026	3.8621	0.1863	-0.7181	0.1241	243613.2812	3509012340.2310	3509012096.6177	7.6105	-3.3162	-3.8469	1.8105	9.9206	2.5119	0.1776	-0.6660	0.3853	243613.2812	-2.7558	0.5924	-0.8849	0.0780	5.8562	-8.3339	-0.8120	1.7521	0.5329	243613.2812	-23.0938	24.6859	2.7574	1.0762	10.1016	-0.7146	0.2950	-0.7663	-0.2673	0.0000	0.0000
243623.0469	-11.2568	-145.1467	-134.4454	3.2369	12.1635	3.6439	-0.3314	-0.5767	-0.7462	243623.0469	-39.6570	-32.5405	95.9866	-2.0423	11.2100	1.0018	-0.0462	-0.7324	-0.4215	243623.0469	185.1179	93.1277	20.2296	5.4282	10.4782	-13.8205	-0.4105	-0.2479	0.5286	243623.0469	-1.3164	-29.9775	-5.9891	-0.1866	9.2208	3.7130	0.1863	-0.7160	0.1265	243623.0469	3509012340.2408	3509012096.6177	7.6105	-3.3162	-3.8469	1.6540	9.9127	1.7219	0.1776	-0.6468	0.3621	243623.0469	-2.7558	0.5924	-0.8849	-0.0789	6.0888	-8.2558	-0.8120	1.7521	0.5329	243623.0469	-23.0938	24.6859	2.7574	1.6326	10.3302	-0.7947	0.3154	-0.7644	-0.2558	0.0000	0.0000
243632.8125	-11.2568	-145.1467	-134.4454	2.0280	12.4690	2.2992	-0.3657	-0.5728	-0.7202	243632.8125	-39.6570	-32.5405	95.9866	-2.7587	12.1661	2.9483	-0.0596	-0.7461	-0.4043	243632.8125	185.1179	93.1277	20.2296	13.4477	17.5394	-13.5872	-0.4165	-0.2354	0.4934	243632.8125	-1.3164	-29.9775	-5.9891	-0.4187	9.1444	3.7161	0.1863	-0.7160	0.1265	243632.8125	3509012340.2506	3509012096.6177	9.6432	-15.9607	-9.3187	1.2628	10.0674	1.6413	0.1776	-0.6468	0.3621	243632.8125	-2.7558	0.5924	-0.8849	0.1576	5.7038	-8.2528	-0.8620	1.7395	0.5751	243632.8125	-23.0938	24.6859	2.7574	1.7894	10.7866	-1.0325	0.2931	-0.7682	-0.2558	0.0000	0.0000
243642.5781	-11.2568	-145.1467	-134.4454	1.8669	13.9200	2.1359	-0.3848	-0.5883	-0.7310	243642.5781	-39.6570	-32.5405	95.9866	-2.8383	13.4863	2.2929	-0.0288	-0.7441	-0.4000	243642.5781	185.1179	93.1277	20.2296	10.6448	20.7413	-22.8109	-0.4567	-0.2875	0.4604	243642.5781	-1.3164	-29.9775	-5.9891	-0.7971	9.1444	4.5691	0.1902	-0.7449	0.1382	243642.5781	3509012340.2603	3509012096.6177	9.6432	-15.9607	-9.3187	1.1846	9.9857	1.2471	0.1714	-0.6702	0.3853	243642.5781	-2.1524	1.5257	-1.4082	0.0016	5.6300	-8.0890	-0.8100	1.7416	0.5493	243642.5781	0.3846	5.2066	-14.7752	2.0321	11.0198	-0.6460	0.3191	-0.7739	-0.2535	0.0000	0.0000
243652.3437	-11.2568	-145.1467	-134.4454	2.5135	13.6909	3.0342	-0.4076	-0.5670	-0.7093	243652.3437	1.8158	-48.5847	105.0018	-1.6443	13.8671	1.3418	-0.0288	-0.7441	-0.4000	243652.3437	27.1857	-122.6704	11.0299	4.8054	9.0067	-11.9556	-0.4266	-0.3000	0.4802	243652.3437	4.6227	-28.3160	-2.7580	-0.7174	9.3735	4.7976	0.1843	-0.6975	0.1241	243652.3437	3509012340.2701	3509012096.6177	9.6432	-15.9607	-9.3187	1.0281	10.0659	1.4833	0.1816	-0.6936	0.3811	243652.3437	-2.1524	1.5257	-1.4082	0.0000	5.6269	-8.2481	-0.8240	1.7395	0.5352	243652.3437	0.3846	5.2066	-14.7752	2.1882	11.3990	-0.9609	0.2950	-0.7893	-0.2581	0.0000	0.0000
243662.1094	21.1890	-5.9498	-119.0301	3.1692	13.1563	4.8379	-0.4152	-0.5728	-0.7397	243662.1094	1.8158	-48.5847	105.0018	-1.2463	13.7993	2.3653	-0.0212	-0.7852	-0.4151	243662.1094	27.1857	-122.6704	11.0299	0.9124	7.0726	-9.2851	-0.4266	-0.3000	0.4802	243662.1094	4.6227	-28.3160	-2.7580	-1.1833	9.2208	4.6494	0.1843	-0.6975	0.1241	243662.1094	3509012340.2798	3509012096.6177	2.7938	-13.3552	-13.1677	1.1064	10.1452	1.6405	0.1816	-0.6936	0.3811	243662.1094	-2.1524	1.5257	-1.4082	0.0796	5.5514	-8.1686	-0.8240	1.7395	0.5352	243662.1094	0.3846	5.2066	-14.7752	2.0258	11.3959	-1.2719	0.3043	-0.7969	-0.2465	0.0000	0.0000
243671.8750	21.1890	-5.9498	-119.0301	2.8647	12.9272	6.2722	-0.4267	-0.5709	-0.7115	243671.8750	1.8158	-48.5847	105.0018	-2.2015	13.5565	1.5053	-0.0096	-0.7637	-0.4000	243671.8750	27.1857	-122.6704	11.0299	-4.9270	6.3566	-10.2952	-0.3924	-0.2771	0.4824	243671.8750	4.6227	-28.3160	-2.7580	-1.4959	9.4499	4.3414	0.1784	-0.7140	0.1241	243671.8750	3509012340.2896	3509012096.6177	2.7938	-13.3552	-13.1677	1.5758	10.1484	1.9565	0.1857	-0.6638	0.3474	243671.8750	3.0164	-0.0556	-1.1568	-0.0771	5.3991	-8.0828	-0.8380	1.7332	0.5751	243671.8750	0.3846	5.2066	-14.7752	1.8636	10.9340	-1.5784	0.2783	-0.8142	-0.2604	0.0000	0.0000
243681.6406	21.1890	-5.9498	-119.0301	0.9589	12.3926	6.9734	-0.4400	-0.5379	-0.7332	243681.6406	-0.7024	-53.2651	103.5204	-4.3507	12.2946	0.1939	0.0019	-0.7461	-0.4000	243681.6406	59.4807	-31.4015	23.4640	-4.9270	6.3566	-10.2952	-0.3843	-0.3021	0.4846	243681.6406	2.0664	-16.0070	-4.3738	-1.4216	9.4499	4.0319	0.1882	-0.7284	0.1358	243681.6406	3509012340.2994	3509012096.6177	2.7938	-13.3552	-13.1677	1.7323	9.6723	1.0132	0.1837	-0.6596	0.3747	243681.6406	3.0164	-0.0556	-1.1568	-0.1567	5.3206	-8.1592	-0.8120	1.7668	0.5657	243681.6406	4.8029	1.5892	-30.8180	1.7067	10.5541	-1.3413	0.3080	-0.7893	-0.2627	0.0000	0.0000
243691.4062	-25.3849	-199.2552	-106.7694	-1.2867	11.4761	5.5761	-0.4743	-0.5398	-0.7007	243691.4062	-0.7024	-53.2651	103.5204	-5.3060	11.0484	0.4547	0.0019	-0.7461	-0.4000	243691.4062	59.4807	-31.4015	23.4640	-1.4234	7.9939	-11.2686	-0.3843	-0.3021	0.4846	243691.4062	2.0664	-16.0070	-4.3738	-1.3457	9.3735	3.8775	0.1843	-0.7428	0.1054	243691.4062	3509012340.3091	3509012096.6177	-0.8429	0.1460	-12.6804	2.2017	9.4446	1.5685	0.1551	-0.7085	0.3768	243691.4062	3.0164	-0.0556	-1.1568	0.0024	5.9396	-8.0156	-0.8200	1.7479	0.5376	243691.4062	4.8029	1.5892	-30.8180	1.3891	10.3255	-1.2612	0.2579	-0.8008	-0.2581	0.0000	0.0000
243701.1719	-25.3849	-199.2552	-106.7694	-1.6174	10.1014	4.3899	-0.4895	-0.5398	-0.7180	243701.1719	-0.7024	-53.2651	103.5204	-5.3060	11.0484	0.4547	0.0346	-0.7578	-0.4022	243701.1719	59.4807	-31.4015	23.4640	0.7567	8.7680	-12.2969	-0.3924	-0.3125	0.5022	243701.1719	2.0664	-16.0070	-4.3738	-1.1910	9.0680	3.8790	0.1843	-0.7428	0.1054	243701.1719	3509012340.3189	3509012096.6177	-0.8429	0.1460	-12.6804	2.2800	9.7564	1.6444	0.1551	-0.7085	0.3768	243701.1719	3.0164	-0.0556	-1.1568	-0.1551	5.4007	-8.0017	-0.8200	1.7479	0.5376	243701.1719	4.8029	1.5892	-30.8180	1.0731	9.9456	-1.0241	0.2839	-0.8161	-0.2535	0.0000	0.0000
243710.9375	-25.3849	-199.2552	-106.7694	0.1291	10.3305	3.6933	-0.5181	-0.5359	-0.6833	243710.9375	6.0972	-13.7189	85.9680	-5.5448	10.1128	0.5520	0.0327	-0.7676	-0.3914	243710.9375	23.0838	-38.6222	36.1322	2.7810	8.1465	-11.6963	-0.3843	-0.3146	0.4802	243710.9375	2.0664	-16.0070	-4.3738	-0.2608	9.0680	4.0241	0.1843	-0.7119	0.1101	243710.9375	3509012340.3287	3509012096.6177	-0.8429	0.1460	-12.6804	2.3582	9.5208	1.4097	0.1755	-0.6468	0.3453	243710.9375	6.5264	-0.7666	-2.8929	0.0796	5.5514	-8.1686	-0.8320	1.7626	0.5704	243710.9375	-3.7205	7.3861	-31.3105	0.8351	9.5641	-0.9425	0.2709	-0.7912	-0.2627	0.0000	0.0000
243720.7031	11.4997	129.2038	-121.9333	3.0843	12.0107	4.3238	-0.5086	-0.4913	-0.7007	243720.7031	6.0972	-13.7189	85.9680	-5.1468	10.0324	0.3178	0.0692	-0.7344	-0.3892	243720.7031	23.0838	-38.6222	36.1322	2.5474	6.1975	-10.5220	-0.3843	-0.3167	0.4824	243720.7031	-3.3828	-4.8370	-6.9719	0.0448	9.2208	3.6335	0.1784	-0.7593	0.1358	243720.7031	3509012340.3384	3509012096.6177	-2.7299	-12.6733	-12.4410	3.0623	9.4430	1.4105	0.1714	-0.6319	0.3579	243720.7031	6.5264	-0.7666	-2.8929	0.1592	5.9379	-8.0983	-0.8220	1.7521	0.5587	243720.7031	-3.7205	7.3861	-31.3105	0.7540	9.2567	-1.0950	0.2894	-0.7969	-0.2581	0.0000	0.0000
243730.4687	11.4997	129.2038	-121.9333	6.2697	13.3854	4.0526	-0.5162	-0.5437	-0.6985	243730.4687	6.0972	-13.7189	85.9680	-3.6343	9.4105	0.5661	0.0692	-0.7344	-0.3892	243730.4687	23.0838	-38.6222	36.1322	1.6910	5.3380	-10.1975	-0.3843	-0.3167	0.4824	243730.4687	-3.3828	-4.8370	-6.9719	0.2777	9.2208	3.7084	0.1941	-0.7016	0.1148	243730.4687	3509012340.3482	3509012096.6177	-2.7299	-12.6733	-12.4410	2.6711	9.3653	1.4113	0.1714	-0.6319	0.3579	243730.4687	6.5264	-0.7666	-2.8929	0.1592	5.9379	-8.0983	-0.8100	1.7521	0.5376	243730.4687	-3.7205	7.3861	-31.3105	0.7548	8.9516	-1.0142	0.2486	-0.8027	-0.2604	0.0000	0.0000
243740.2344	11.4997	129.2038	-121.9333	6.4299	12.2399	4.1376	-0.5124	-0.5379	-0.7223	243740.2344	6.0972	-13.7189	85.9680	-2.8383	8.7808	0.0283	0.0769	-0.7559	-0.4108	243740.2344	23.0838	-38.6222	36.1322	1.3017	5.1773	-10.5762	-0.3783	-0.3583	0.5066	243740.2344	-3.3828	-4.8370	-6.9719	0.4309	9.2971	3.5517	0.1941	-0.7016	0.1148	243740.2344	3509012340.3580	3509012096.6177	-2.7299	-12.6733	-12.4410	2.5147	9.2082	1.2548	0.1694	-0.6553	0.3853	243740.2344	6.7257	-1.3409	-3.2537	0.1600	5.7855	-8.0157	-0.8100	1.7521	0.5376	243740.2344	-6.8365	13.3949	-35.6411	0.9936	8.7987	-1.0127	0.2672	-0.8084	-0.2373	0.0000	0.0000
243750.0000	11.4997	129.2038	-121.9333	4.9797	12.0107	2.5751	-0.5352	-0.5165	-0.6920	243750.0000	0.2853	-16.4084	66.5444	-2.8383	8.2338	-0.0394	0.0846	-0.7812	-0.3978	243750.0000	-7.9625	-22.1601	14.5912	2.2360	4.7897	-10.1207	-0.3742	-0.3542	0.5066	243750.0000	-6.3524	-3.1127	-12.8806	0.4278	9.5263	3.2406	0.1784	-0.6975	0.1148	243750.0000	3509012340.3677	3509012096.6177	-2.7299	-12.6733	-12.4410	2.3582	9.2058	1.0178	0.1755	-0.6404	0.3516	243750.0000	6.7257	-1.3409	-3.2537	0.0023	6.0935	-8.0187	-0.8420	1.7542	0.5822	243750.0000	-6.8365	13.3949	-35.6411	0.9928	9.0273	-1.0927	0.2449	-0.7720	-0.2419	0.0000	0.0000
243759.7656	11.3901	-81.4272	-117.6018	3.6159	11.5525	1.6909	-0.5562	-0.5223	-0.7223	243759.7656	0.2853	-16.4084	66.5444	-2.5995	8.0785	0.0424	0.0846	-0.7812	-0.3978	243759.7656	-7.9625	-22.1601	14.5912	3.0925	3.8539	-9.5821	-0.3742	-0.3583	0.4802	243759.7656	-6.3524	-3.1127	-12.8806	0.9664	9.2208	2.9295	0.1686	-0.7510	0.1429	243759.7656	3509012340.3775	3509012096.6177	-0.8364	-17.0175	-12.0250	2.1235	9.5160	0.9357	0.1592	-0.6319	0.3642	243759.7656	6.7257	-1.3409	-3.2537	0.0811	6.0165	-8.0187	-0.8100	1.7395	0.5587	243759.7656	-6.8365	13.3949	-35.6411	1.0716	9.2559	-1.1728	0.2616	-0.8238	-0.2419	0.0000	0.0000
243769.5312	11.3901	-81.4272	-117.6018	3.2364	9.6432	3.5939	-0.5676	-0.4971	-0.6963	243769.5312	0.2853	-16.4084	66.5444	-2.5995	7.8459	0.2043	0.0942	-0.7402	-0.4022	243769.5312	-7.9625	-22.1601	14.5912	3.1703	2.9943	-9.2669	-0.3742	-0.3583	0.4802	243769.5312	-6.3524	-3.1127	-12.8806	0.8883	9.2971	2.8523	0.1686	-0.7510	0.1429	243769.5312	3509012340.3873	3509012096.6177	-0.8364	-17.0175	-12.0250	2.2017	9.7454	0.5383	0.1592	-0.6319	0.3642	243769.5312	3.2971	-0.8396	-2.7351	0.1600	5.9395	-8.0188	-0.8160	1.7605	0.5516	243769.5312	-16.2259	7.2650	-36.0383	1.0715	9.8675	-1.1789	0.2338	-0.8084	-0.2442	0.0000	0.0000
243779.2969	11.3901	-81.4272	-117.6018	4.2875	9.3377	5.0905	-0.5771	-0.4913	-0.7137	243779.2969	10.3079	-63.0760	34.7290	-2.4403	7.6907	0.2860	0.0904	-0.7754	-0.4215	243779.2969	-38.6084	-24.9416	-19.6596	2.2360	1.9780	-8.9401	-0.3803	-0.3792	0.5176	243779.2969	-5.2809	-23.6021	-11.8984	0.6561	9.5263	2.8523	0.1863	-0.7284	0.1194	243779.2969	3509012340.3970	3509012096.6177	-0.8364	-17.0175	-12.0250	1.7323	9.7438	0.3803	0.1633	-0.6511	0.3853	243779.2969	3.2971	-0.8396	-2.7351	0.1600	5.7855	-8.0157	-0.8160	1.7605	0.5516	243779.2969	-16.2259	7.2650	-36.0383	1.3119	10.3278	-1.0279	0.2542	-0.7950	-0.2373	0.0000	0.0000
243789.0625	-20.6594	-123.4510	-111.7271	4.2071	9.4905	5.0146	-0.6000	-0.4816	-0.6855	243789.0625	10.3079	-63.0760	34.7290	-2.8383	6.7519	0.0689	0.1000	-0.7812	-0.4086	243789.0625	-38.6084	-24.9416	-19.6596	1.1460	1.6652	-8.8492	-0.3622	-0.3583	0.5242	243789.0625	-5.2809	-23.6021	-11.8984	0.1137	9.6026	2.7798	0.1784	-0.6996	0.1101	243789.0625	3509012340.4068	3509012096.6177	2.4358	-7.3299	-13.9192	1.3411	10.0588	0.7723	0.1653	-0.6489	0.3663	243789.0625	3.2971	-0.8396	-2.7351	0.1600	5.7855	-8.0157	-0.8380	1.7164	0.5751	243789.0625	-16.2259	7.2650	-36.0383	1.3876	10.4769	-1.4183	0.2226	-0.7969	-0.2327	0.0000	0.0000
243798.8281	-20.6594	-123.4510	-111.7271	4.1214	9.4141	4.4146	-0.6210	-0.5049	-0.6920	243798.8281	10.3079	-63.0760	34.7290	-2.9975	6.2837	0.0783	0.1000	-0.7812	-0.4086	243798.8281	-38.6084	-24.9416	-19.6596	0.6788	0.7341	-7.8365	-0.3622	-0.3583	0.5242	243798.8281	-5.2809	-23.6021	-11.8984	-0.5062	9.5263	2.7096	0.1686	-0.7346	0.1382	243798.8281	3509012340.4166	3509012096.6177	2.4358	-7.3299	-13.9192	1.7323	9.9032	0.7738	0.1653	-0.6489	0.3663	243798.8281	3.2971	-0.8396	-2.7351	0.2381	5.4760	-8.0906	-0.8080	1.7626	0.5540	243798.8281	-16.2259	7.2650	-36.0383	1.3064	10.3224	-1.5722	0.2505	-0.8008	-0.2373	0.0000	0.0000
243808.5937	-20.6594	-123.4510	-111.7271	3.7109	8.8795	3.2207	-0.6571	-0.4854	-0.6291	243808.5937	16.0836	-65.1390	-3.9729	-3.7139	5.4324	0.8029	0.0981	-0.7402	-0.4000	243808.5937	-65.6947	0.7850	-17.1397	0.9903	-0.1193	-6.9091	-0.3622	-0.3479	0.5220	243808.5937	-8.3423	-28.8420	-11.5535	-0.7391	9.7554	2.6324	0.1686	-0.7346	0.1382	243808.5937	3509012340.4263	3509012096.6177	2.4358	-7.3299	-13.9192	1.7323	9.9032	0.7738	0.1469	-0.6702	0.3516	243808.5937	6.2994	-3.6964	-0.6178	0.1609	5.3252	-7.9269	-0.8320	1.7458	0.5446	243808.5937	-22.0292	2.6638	-20.0766	1.4664	10.0938	-1.4922	0.2319	-0.7912	-0.2304	0.0000	0.0000
243818.3594	-48.1490	-141.8168	-115.3454	2.9801	8.8031	1.8751	-0.6781	-0.4990	-0.6508	243818.3594	16.0836	-65.1390	-3.9729	-3.3159	5.5869	0.6426	0.0904	-0.7812	-0.4323	243818.3594	-65.6947	0.7850	-17.1397	1.7689	-0.6661	-6.6809	-0.3763	-0.3896	0.5463	243818.3594	-8.3423	-28.8420	-11.5535	-0.8157	9.9081	2.7088	0.1647	-0.7325	0.1148	243818.3594	3509012340.4361	3509012096.6177	0.6944	-14.5416	-17.4069	2.3582	9.9025	0.6948	0.1490	-0.7106	0.3768	243818.3594	6.2994	-3.6964	-0.6178	0.0829	5.3268	-7.8458	-0.8320	1.7458	0.5446	243818.3594	-22.0292	2.6638	-20.0766	1.6233	9.9386	-1.7239	0.2412	-0.8008	-0.2212	0.0000	0.0000
243828.1250	-48.1490	-141.8168	-115.3454	2.2561	8.8795	1.2047	-0.6952	-0.4680	-0.6030	243828.1250	16.0836	-65.1390	-3.9729	-3.6343	4.4937	0.5858	0.0846	-0.7520	-0.4151	243828.1250	-65.6947	0.7850	-17.1397	2.0024	-0.8199	-6.3744	-0.3602	-0.3521	0.5529	243828.1250	-8.3423	-28.8420	-11.5535	-1.2026	9.8317	2.7135	0.1725	-0.7222	0.1101	243828.1250	3509012340.4459	3509012096.6177	0.6944	-14.5416	-17.4069	2.6711	9.9810	0.7730	0.1408	-0.6766	0.3684	243828.1250	6.2994	-3.6964	-0.6178	0.6337	5.0941	-7.9317	-0.8280	1.7542	0.5798	243828.1250	-22.0292	2.6638	-20.0766	1.4610	9.7825	-2.0334	0.2282	-0.7912	-0.2166	0.0000	0.0000
243837.8906	-48.1490	-141.8168	-115.3454	2.0140	8.8795	0.9063	-0.7162	-0.4777	-0.6204	243837.8906	14.9580	-39.2916	-53.3636	-3.3955	4.1035	0.5936	0.0846	-0.7520	-0.4151	243837.8906	-65.6947	0.7850	-17.1397	2.0803	-1.2897	-6.2936	-0.3602	-0.3521	0.5529	243837.8906	-8.3423	-28.8420	-11.5535	-1.0456	9.9845	2.9420	0.1745	-0.7593	0.1218	243837.8906	3509012340.4556	3509012096.6177	0.6944	-14.5416	-17.4069	2.5929	9.9056	1.0108	0.1408	-0.6766	0.3684	243837.8906	18.1421	-10.8431	0.5709	0.1600	5.6316	-8.0126	-0.8120	1.7458	0.5446	243837.8906	-32.3126	-5.4185	-9.4819	1.6218	9.5547	-1.8756	0.2356	-0.8103	-0.2120	0.0000	0.0000
243847.6562	-28.1254	-75.3401	-123.2193	1.7765	8.9558	1.0584	-0.7276	-0.4447	-0.5879	243847.6562	14.9580	-39.2916	-53.3636	-3.4751	3.6408	1.1532	0.0673	-0.7480	-0.4215	243847.6562	-91.5485	9.6205	-15.7741	1.6910	-1.0536	-6.2153	-0.3481	-0.3354	0.5507	243847.6562	-7.7453	-22.3627	-6.6413	-0.7321	9.6790	3.3279	0.1745	-0.7593	0.1218	243847.6562	3509012340.4654	3509012096.6177	2.6796	-33.3296	-21.5463	2.2800	9.6692	0.6971	0.1571	-0.6426	0.3516	243847.6562	18.1421	-10.8431	0.5709	0.0016	5.7070	-8.0905	-0.8120	1.7458	0.5446	243847.6562	-32.3126	-5.4185	-9.4819	1.4626	9.5547	-1.8756	0.2208	-0.7893	-0.2097	0.0000	0.0000
243857.4219	-28.1254	-75.3401	-123.2193	2.0193	9.0322	1.4312	-0.7505	-0.4466	-0.6009	243857.4219	14.9580	-39.2916	-53.3636	-3.3159	3.6361	0.6816	0.0654	-0.8027	-0.4473	243857.4219	-91.5485	9.6205	-15.7741	1.8467	-0.9706	-5.7567	-0.3783	-0.3375	0.5881	243857.4219	-7.7453	-22.3627	-6.6413	-0.2679	9.6790	3.3233	0.1686	-0.7140	0.1218	243857.4219	3509012340.4752	3509012096.6177	2.6796	-33.3296	-21.5463	2.2017	9.6723	1.0132	0.1408	-0.6787	0.3789	243857.4219	18.1421	-10.8431	0.5709	0.0811	6.0165	-8.0187	-0.8120	1.7437	0.5423	243857.4219	-32.3126	-5.4185	-9.4819	1.7857	9.6358	-1.4098	0.2356	-0.8314	-0.2166	0.0000	0.0000
243867.1875	-28.1254	-75.3401	-123.2193	2.4200	9.1086	1.6520	-0.7429	-0.4330	-0.5748	243867.1875	14.9580	-39.2916	-53.3636	-3.2363	3.0899	0.6925	0.0269	-0.7969	-0.4258	243867.1875	-91.5485	9.6205	-15.7741	1.8467	-0.6569	-5.7598	-0.3783	-0.3375	0.5881	243867.1875	-7.7453	-22.3627	-6.6413	-0.0349	9.3735	3.4012	0.1627	-0.7243	0.1171	243867.1875	3509012340.4849	3509012096.6177	2.6796	-33.3296	-21.5463	2.2800	9.6763	1.4082	0.1408	-0.6787	0.3789	243867.1875	20.4894	-12.5665	2.7416	0.3176	5.9394	-8.0219	-0.8380	1.7395	0.5845	243867.1875	-21.9963	-4.9493	-9.1823	1.3846	9.4034	-1.7186	0.2171	-0.7969	-0.1982	0.0000	0.0000
243876.9531	-28.1254	-75.3401	-123.2193	2.2614	8.4976	1.7349	-0.7676	-0.4233	-0.5900	243876.9531	20.5637	-21.3070	-103.0197	-2.9179	3.1687	0.7696	0.0269	-0.7969	-0.4258	243876.9531	-123.6063	39.6748	-20.0944	1.7689	-0.1071	-5.6877	-0.3662	-0.3250	0.5991	243876.9531	-6.8881	-24.7746	-8.2428	-0.1866	9.2208	3.7130	0.1627	-0.7243	0.1171	243876.9531	3509012340.4947	3509012096.6177	1.3106	-24.8488	-24.3563	2.3582	9.6755	1.3292	0.1408	-0.6851	0.3684	243876.9531	20.4894	-12.5665	2.7416	-0.0757	6.0182	-7.9360	-0.8020	1.7311	0.5469	243876.9531	-21.9963	-4.9493	-9.1823	1.3064	10.0166	-1.5692	0.2096	-0.8295	-0.1959	0.0000	0.0000
243886.7187	-35.6991	-34.7305	-125.5670	2.3404	8.4212	1.6597	-0.7695	-0.4136	-0.5748	243886.7187	20.5637	-21.3070	-103.0197	-2.7587	3.3263	0.9236	0.0212	-0.7598	-0.4323	243886.7187	-123.6063	39.6748	-20.0944	1.4574	0.3650	-5.5356	-0.3662	-0.2938	0.6035	243886.7187	-6.8881	-24.7746	-8.2428	-0.4148	9.0680	4.1029	0.1725	-0.7387	0.1358	243886.7187	3509012340.5045	3509012096.6177	1.3106	-24.8488	-24.3563	2.4364	9.6787	1.6452	0.1531	-0.6553	0.3495	243886.7187	20.4894	-12.5665	2.7416	0.0023	6.0166	-8.0171	-0.8020	1.7311	0.5469	243886.7187	-21.9963	-4.9493	-9.1823	1.6256	10.0173	-1.4914	0.1985	-0.8123	-0.2005	0.0000	0.0000
243896.4844	-35.6991	-34.7305	-125.5670	2.4194	7.9630	1.5883	-0.7790	-0.3767	-0.5748	243896.4844	20.5637	-21.3070	-103.0197	-2.8383	4.0255	0.5952	0.0115	-0.7871	-0.4602	243896.4844	-123.6063	39.6748	-20.0944	0.6788	0.5296	-4.7612	-0.3843	-0.3063	0.6410	243896.4844	-6.8881	-24.7746	-8.2428	-0.4187	9.1444	3.7161	0.1608	-0.7202	0.1171	243896.4844	3509012340.5142	3509012096.6177	1.3106	-24.8488	-24.3563	2.9059	9.5287	2.1998	0.1429	-0.6723	0.3768	243896.4844	19.7183	-11.3015	2.1060	-0.1553	6.0936	-8.0155	-0.8160	1.7437	0.5610	243896.4844	-21.9963	-4.9493	-9.1823	1.2292	9.8660	-1.3344	0.2226	-0.8391	-0.2074	0.0000	0.0000
243906.2500	-35.6991	-34.7305	-125.5670	2.5773	7.8866	1.4371	-0.7905	-0.3922	-0.5640	243906.2500	24.4300	-14.9837	-140.7951	-3.0771	3.4816	0.8419	-0.0231	-0.7598	-0.4387	243906.2500	-147.0690	54.8237	-23.4790	-0.0219	1.3962	-4.3787	-0.3843	-0.3063	0.6410	243906.2500	-8.3116	-20.5050	-17.4387	-0.3436	9.0680	3.4845	0.1490	-0.7284	0.1124	243906.2500	3509012340.5240	3509012096.6177	1.3106	-24.8488	-24.3563	2.6711	9.5192	1.2517	0.1429	-0.6723	0.3768	243906.2500	19.7183	-11.3015	2.1060	-0.2333	6.0952	-7.9344	-0.8280	1.6975	0.5869	243906.2500	-23.3392	-0.8779	-5.0522	1.3088	9.7131	-1.3329	0.2189	-0.8238	-0.1866	0.0000	0.0000
